aX,aY,aZ,gX,gY,gZ
0.06,0.67,0.49,46.27,70.1443.33,
0.06,0.67,0.51,55.72,72.5239.62,
0.07,0.69,0.53,62.02,74.9735.98,
0.09,0.72,0.56,68.81,77.4931.22,
0.11,0.78,0.58,72.24,78.6829.89,
0.09,0.85,0.60,74.62,78.5429.54,
0.05,0.98,0.61,54.67,77.5632.13,
0.01,1.11,0.61,58.94,74.3437.31,
-0.02,1.22,0.67,41.09,70.3541.93,
-0.05,1.39,0.80,22.12,69.1644.73,
0.00,1.51,0.95,4.62,64.6851.31,
0.10,1.37,0.95,-14.21,58.8056.07,
0.18,1.18,0.85,-34.23,53.6261.53,
0.17,0.90,0.75,-46.13,48.6568.74,
0.16,0.74,0.70,-37.10,47.7474.76,
0.12,0.73,0.51,-19.88,51.1775.25,
0.02,0.84,0.30,1.40,57.9670.49,
-0.11,0.93,0.14,18.62,64.6863.98,
-0.33,0.96,0.10,24.08,72.1757.05,
-0.42,1.00,0.13,24.22,77.1453.06,
-0.41,1.09,0.15,25.48,80.6450.82,
-0.32,1.18,0.25,22.68,84.3548.93,
-0.26,1.24,0.41,8.68,85.5444.52,
-0.23,1.18,0.45,-9.45,74.3433.81,
-0.12,1.06,0.46,-20.44,63.2827.51,
0.02,0.91,0.40,-25.20,66.8524.78,
0.05,0.76,0.31,-18.62,72.2422.19,
0.04,0.70,0.24,-7.07,79.5220.02,
0.00,0.71,0.15,6.30,86.5917.78,
-0.03,0.73,0.06,22.68,89.6014.21,
-0.07,0.91,0.03,39.97,84.2110.36,
-0.04,1.02,0.05,57.68,77.4910.15,
-0.07,1.16,0.08,71.61,73.579.03,
-0.09,1.23,0.18,75.53,71.968.33,
-0.07,1.23,0.28,79.73,69.7910.36,
-0.07,1.20,0.31,80.22,64.7513.23,
-0.04,1.06,0.31,77.21,59.3615.12,
0.01,1.02,0.28,71.05,56.2114.42,
0.02,0.94,0.24,65.03,56.1413.09,
0.01,0.90,0.22,57.96,58.1711.20,
-0.02,0.86,0.18,56.56,61.118.75,
-0.05,0.85,0.15,59.29,62.795.53,
-0.09,0.85,0.14,63.98,63.14-0.91,
-0.11,0.86,0.15,67.69,64.12-6.58,
-0.15,0.87,0.15,68.25,66.01-10.92,
-0.17,0.87,0.14,64.26,67.48-15.26,
-0.18,0.86,0.15,56.14,65.87-18.55,
-0.15,0.80,0.14,52.43,63.56-19.88,
-0.10,0.75,0.11,48.93,59.15-19.46,
-0.08,0.73,0.07,46.97,53.20-17.57,
-0.05,0.72,0.05,44.73,46.90-14.14,
-0.05,0.72,0.06,45.64,38.36-11.20,
-0.06,0.74,0.10,51.03,32.83-10.29,
-0.08,0.80,0.14,60.69,28.42-11.13,
-0.08,0.90,0.15,69.79,25.55-12.74,
-0.07,1.03,0.15,72.10,22.68-14.14,
-0.06,1.12,0.15,66.08,19.11-15.89,
-0.06,1.11,0.15,55.02,17.29-18.55,
-0.05,1.06,0.16,46.13,17.22-23.03,
-0.04,1.06,0.16,36.26,19.60-27.44,
-0.03,1.08,0.14,27.86,21.00-30.66,
-0.05,1.09,0.15,16.52,22.89-33.04,
-0.04,1.09,0.17,7.91,21.35-35.07,
-0.02,1.04,0.18,2.80,16.87-35.77,
0.04,0.98,0.17,0.84,12.81-34.86,
0.06,0.93,0.13,2.73,12.39-31.99,
0.05,0.91,0.06,6.02,14.00-29.33,
0.03,0.92,-0.02,7.28,16.31-27.44,
0.02,0.93,-0.03,8.05,18.27-24.64,
0.03,0.99,0.00,9.31,18.83-23.52,
0.02,1.04,0.05,8.05,16.24-20.51,
-0.01,1.08,0.11,5.95,14.21-18.34,
-0.04,1.14,0.17,3.50,14.28-17.01,
-0.04,1.17,0.19,0.21,15.54-15.75,
-0.01,1.17,0.16,-3.01,16.80-15.26,
0.03,1.00,0.15,-4.55,18.34-13.79,
0.06,1.10,0.17,-5.60,19.60-14.07,
0.07,1.08,0.23,-6.86,24.01-12.53,
0.11,1.10,0.26,-6.93,28.14-14.21,
0.14,1.07,0.29,-8.75,32.83-13.65,
0.16,1.08,0.27,-13.51,36.12-13.37,
0.17,1.08,0.25,-21.28,36.96-11.34,
0.17,1.14,0.24,-29.61,37.66-8.54,
0.18,1.21,0.20,-40.11,39.27-4.27,
0.17,1.27,0.16,-52.64,43.190.98,
0.15,1.30,0.11,-68.32,49.4911.27,
0.10,1.27,0.09,-84.70,59.0122.75,
0.02,1.27,0.10,-100.52,73.1535.63,
-0.06,1.22,0.13,-116.06,84.8450.75,
-0.13,1.17,0.13,-135.94,93.3866.22,
-0.22,1.13,0.13,-150.85,95.8380.92,
-0.32,1.10,0.19,-159.67,94.0192.68,
-0.39,1.11,0.18,-169.26,86.59101.15,
-0.44,1.10,0.20,-170.10,73.36103.95,
-0.50,1.10,0.29,-173.95,62.44101.29,
-0.46,1.08,0.39,-154.00,60.8396.18,
-0.44,1.24,0.41,-146.79,63.4988.76,
-0.31,1.21,0.37,-145.88,66.4386.66,
-0.23,1.16,0.33,-141.05,67.8389.18,
-0.19,1.22,0.24,-132.65,64.5482.67,
-0.11,1.15,0.24,-124.60,63.9878.19,
-0.11,1.08,0.27,-120.96,64.6873.29,
-0.11,0.97,0.30,-117.60,64.8271.89,
-0.10,0.92,0.31,-112.56,62.6573.85,
-0.11,0.88,0.34,-108.99,58.6679.10,
-0.09,0.86,0.38,-104.23,57.8288.34,
-0.09,0.89,0.41,-100.10,59.2995.83,
-0.10,0.90,0.41,-98.91,59.92103.25,
-0.02,0.93,0.47,-100.31,63.21110.74,
0.02,1.01,0.52,-104.02,67.41118.51,
0.03,1.02,0.56,-108.36,68.53125.86,
0.08,1.02,0.62,-105.77,70.00131.04,
0.09,0.98,0.63,-102.48,74.83134.33,
0.06,0.92,0.61,-95.41,76.44133.49,
0.06,0.84,0.57,-84.35,76.72134.19,
0.05,0.75,0.52,-67.69,77.21138.60,
0.04,0.75,0.48,-63.98,76.44139.86,
0.04,0.73,0.46,-65.87,77.42139.30,
0.04,0.77,0.46,-73.08,82.18137.97,
0.05,0.76,0.45,-73.92,88.06134.54,
-0.01,0.75,0.45,-72.66,92.47132.16,
-0.07,0.76,0.44,-69.93,94.01130.41,
-0.14,0.72,0.43,-63.28,92.40129.01,
-0.20,0.68,0.45,-56.91,89.46126.42,
-0.25,0.66,0.46,-53.13,87.57120.61,
-0.19,0.62,0.53,-53.55,83.51119.35,
-0.17,0.64,0.54,-52.50,84.91113.33,
-0.08,0.66,0.63,-58.38,83.79113.89,
-0.04,0.69,0.65,-69.23,82.46114.52,
0.01,0.75,0.69,-79.66,80.57114.73,
0.04,0.74,0.73,-86.24,77.63116.06,
0.11,0.58,0.71,-92.40,78.26125.58,
0.07,0.68,0.76,-83.86,68.60132.16,
0.18,0.42,0.75,-88.62,56.70133.84,
0.12,0.50,0.71,-60.34,53.83131.25,
0.12,0.47,0.70,-51.24,53.34129.78,
0.15,0.44,0.71,-44.73,54.11126.07,
0.16,0.44,0.70,-37.17,56.84121.45,
0.16,0.39,0.68,-31.99,59.08118.09,
0.15,0.38,0.70,-23.24,59.15114.45,
0.16,0.37,0.70,-17.29,56.14112.07,
0.18,0.37,0.75,-7.14,53.83108.92,
0.21,0.38,0.77,-0.84,51.52105.70,
0.24,0.37,0.79,9.17,46.62102.27,
0.28,0.36,0.78,22.54,42.5696.67,
0.33,0.36,0.77,43.54,39.6290.09,
0.29,0.37,0.74,65.24,36.6179.59,
0.26,0.35,0.71,104.86,34.7966.36,
0.25,0.34,0.69,122.78,32.3447.32,
0.14,0.41,0.68,144.83,21.9836.75,
0.02,0.88,0.82,111.58,-4.9052.50,
0.16,0.35,0.68,140.00,-8.6835.63,
-0.34,1.28,0.73,164.92,-3.8515.96,
-0.55,1.34,0.87,151.06,2.17-1.61,
-0.67,1.52,0.94,116.83,10.36-16.73,
-0.66,1.40,0.87,80.50,19.32-26.67,
-0.61,1.20,0.61,65.52,21.63-35.63,
-0.55,1.04,0.49,65.10,17.01-37.38,
-0.41,0.90,0.46,76.30,8.40-36.05,
-0.32,0.89,0.44,91.21,-40.18,
-0.27,0.90,0.34,99.68,-48.79,
-0.21,0.96,0.34,102.20,-57.12,
-0.15,0.97,0.33,99.33,-61.11,
-0.07,0.96,0.37,100.03,-63.35,
-0.01,0.96,0.39,101.64,-59.22,
0.02,0.95,0.37,107.87,-55.79,
0.02,0.94,0.33,112.35,-54.46,
0.01,0.91,0.33,119.21,-56.28,
0.04,0.94,0.36,119.49,-57.54,
0.04,0.97,0.36,113.96,-58.03,
0.03,0.96,0.33,108.22,-58.17,
0.04,0.95,0.32,104.16,-58.38,
0.04,0.94,0.33,98.49,-60.48,
0.06,0.99,0.37,95.76,-56.56,
0.10,1.00,0.42,87.29,-48.58,
0.10,0.96,0.45,82.25,-41.44,
0.09,0.91,0.43,78.96,-35.00,
0.09,0.89,0.39,79.24,2.66-30.31,
0.10,0.89,0.36,78.68,5.04-26.74,
0.12,0.83,0.34,77.35,6.93-20.58,
0.08,0.80,0.27,78.82,3.43-15.54,
0.07,0.81,0.26,78.89,3.01-11.34,
0.07,0.83,0.25,74.20,4.41-7.00,
0.00,0.84,0.19,69.51,1.33-2.66,
0.00,0.86,0.18,66.78,-5.18,
-0.02,0.88,0.19,62.51,-8.40,
-0.04,0.87,0.23,58.17,-11.27,
-0.05,0.85,0.26,51.66,-12.95,
-0.07,0.82,0.27,51.45,-14.351.19,
-0.05,0.84,0.26,51.80,-17.78,
-0.04,0.85,0.21,51.66,-18.83,
-0.06,0.88,0.21,49.63,-20.65,
-0.09,0.90,0.18,48.02,-26.74,
-0.11,0.92,0.15,43.68,-28.70,
-0.08,0.94,0.16,37.80,-30.24,
-0.10,0.92,0.19,31.08,-30.66,
-0.04,0.89,0.19,28.49,-33.04,
-0.01,0.84,0.21,25.76,-33.81,
0.07,0.81,0.24,25.20,-34.37,
0.12,0.79,0.27,25.83,-32.62,
0.13,0.87,0.27,32.97,-35.35,
0.14,0.97,0.26,33.53,-35.21,
0.14,1.01,0.30,35.84,-29.89,
0.17,1.06,0.33,38.43,-19.67,
0.18,1.10,0.31,37.94,4.69-13.09,
0.19,1.13,0.27,34.09,11.41-11.20,
0.17,1.14,0.24,30.31,13.65-8.89,
0.13,1.19,0.22,27.93,13.86-6.51,
0.06,1.26,0.24,22.61,12.39-5.67,
0.02,1.34,0.25,16.45,11.69-7.35,
0.01,1.40,0.28,5.95,12.18-8.05,
-0.03,1.44,0.32,-7.14,14.42-7.70,
-0.05,1.48,0.30,-21.63,16.94-6.79,
-0.07,1.49,0.25,-43.54,17.64-4.62,
-0.09,1.46,0.20,-58.52,15.050.07,
-0.13,1.46,0.20,-67.20,11.276.72,
-0.15,1.44,0.22,-70.77,8.4015.82,
-0.19,1.40,0.23,-71.05,5.1821.42,
-0.22,1.31,0.30,-71.68,1.9624.92,
-0.26,1.25,0.40,-80.50,1.8227.44,
-0.27,1.21,0.44,-95.97,2.6628.49,
-0.24,1.17,0.45,-114.87,4.0627.23,
-0.17,1.08,0.46,-127.05,7.2824.92,
-0.11,1.04,0.51,-133.91,12.7423.03,
-0.04,1.05,0.54,-142.45,20.9323.66,
0.00,1.06,0.58,-152.60,27.3725.34,
0.03,1.11,0.61,-165.83,32.5528.14,
0.09,1.12,0.60,-178.01,35.5634.44,
0.07,1.13,0.56,-186.97,30.8040.25,
0.07,1.06,0.47,-185.99,20.8651.10,
0.08,0.93,0.41,-170.45,13.2358.31,
0.04,0.91,0.41,-155.12,17.0161.25,
0.04,0.84,0.39,-125.65,27.4463.98,
0.03,0.76,0.33,-118.44,39.9065.87,
0.00,0.70,0.28,-95.97,49.4266.57,
-0.01,0.69,0.27,-77.00,54.4666.43,
-0.03,0.70,0.30,-64.40,56.7763.63,
-0.10,0.71,0.38,-58.17,53.0659.57,
-0.15,0.67,0.45,-57.61,44.7356.56,
-0.15,0.69,0.53,-55.72,36.3352.99,
-0.15,0.75,0.64,-66.99,29.4751.24,
-0.14,0.80,0.75,-83.16,21.7750.54,
-0.11,0.81,0.72,-98.35,17.3651.52,
-0.10,0.73,0.65,-107.17,14.1454.95,
-0.06,0.66,0.57,-107.10,13.5159.08,
-0.05,0.59,0.52,-104.65,17.0161.95,
-0.02,0.54,0.49,-103.32,24.7163.70,
-0.05,0.51,0.44,-98.98,31.3663.21,
-0.06,0.46,0.40,-90.16,37.8061.67,
-0.08,0.40,0.38,-75.04,44.1758.38,
-0.11,0.41,0.37,-59.85,44.1758.17,
-0.11,0.49,0.39,-46.48,39.7657.12,
-0.05,0.50,0.41,-41.30,32.8360.20,
-0.06,0.51,0.47,-40.04,29.6867.76,
-0.06,0.68,0.54,-83.37,23.5982.39,
-0.14,0.30,0.51,-83.51,21.2872.66,
-0.14,0.24,0.50,-83.23,27.2364.82,
-0.34,0.73,0.55,-95.27,24.0166.50,
-0.09,0.15,0.50,-73.15,27.1661.95,
-0.07,0.16,0.54,-61.25,26.4657.19,
-0.07,0.16,0.58,-44.24,23.5251.73,
-0.03,0.22,0.60,-31.99,19.3246.34,
0.00,0.26,0.64,-21.56,13.5840.95,
0.12,0.30,0.68,-14.35,6.9335.91,
0.04,0.31,0.72,-7.56,2.7330.03,
0.06,0.32,0.79,3.29,-0.7024.36,
0.09,0.27,0.88,19.11,-2.3818.13,
0.10,0.27,0.96,32.48,-4.9712.18,
0.14,0.26,0.97,45.29,-7.775.95,
0.16,0.27,0.93,63.70,-11.41,
0.15,0.31,0.90,83.86,-25.55,
0.02,0.44,0.87,98.70,-36.40,
0.12,0.59,0.87,83.86,-35.70,
0.11,0.47,0.97,106.96,-30.179.03,
0.09,0.66,1.25,84.70,-34.0917.01,
0.01,0.97,1.12,76.65,-29.6811.27,
-0.16,1.23,1.19,90.86,-14.28,
-0.24,1.42,1.15,108.85,11.69-26.88,
-0.29,1.38,1.04,102.83,15.54-36.26,
-0.29,1.20,0.76,94.71,20.58-43.54,
-0.18,0.97,0.65,95.06,24.57-40.25,
-0.11,0.64,0.59,96.74,17.92-35.35,
-0.06,0.59,0.48,102.27,6.65-31.64,
-0.02,0.60,0.43,102.69,-30.94,
0.00,0.59,0.39,103.74,-35.91,
-0.03,0.60,0.37,109.27,-40.95,
-0.04,0.66,0.35,111.09,-44.24,
-0.09,0.70,0.34,111.51,-48.30,
-0.15,0.73,0.38,109.27,-55.72,
-0.14,0.76,0.38,112.56,-64.19,
-0.18,0.87,0.39,116.62,-73.01,
-0.16,0.92,0.39,119.63,-77.98,
-0.13,1.02,0.39,124.81,-84.35,
-0.09,1.09,0.38,128.59,-91.77,
-0.04,1.11,0.40,125.72,-97.93,
-0.01,1.06,0.39,122.50,-105.56,
0.10,1.05,0.41,119.21,-107.52,
0.12,1.01,0.41,113.75,-110.39,
0.16,0.99,0.40,103.67,-109.06,
0.18,0.93,0.37,98.84,-105.63,
0.21,0.92,0.34,94.43,-99.47,
0.19,0.88,0.29,93.52,-94.29,
0.18,0.88,0.28,91.91,-84.35,
0.15,0.89,0.27,86.66,-77.21,
0.11,0.90,0.25,82.81,-70.63,
0.08,0.89,0.21,80.64,-64.47,
0.08,0.88,0.17,81.97,-57.75,
0.08,0.86,0.20,79.38,-47.32,
0.08,0.80,0.16,78.96,-36.75,
0.05,0.78,0.17,80.78,-30.45,
0.06,0.78,0.19,78.68,-27.65,
0.04,0.75,0.21,73.92,-25.69,
0.05,0.78,0.23,70.07,-25.97,
0.01,0.76,0.25,68.60,-24.29,
-0.02,0.79,0.25,68.67,-23.59,
-0.13,0.81,0.22,66.85,-28.28,
-0.17,0.86,0.21,63.14,-42.84,
-0.19,0.89,0.21,51.17,-56.49,
-0.19,0.91,0.22,41.16,-71.68,
-0.17,0.94,0.22,29.33,-84.42,
-0.11,0.93,0.19,21.07,-90.23,
-0.02,0.95,0.18,10.71,-90.30,
0.12,0.94,0.19,3.29,-79.38,
0.20,0.98,0.19,0.00,-68.25,
0.23,0.98,0.22,2.17,-53.83,
0.25,1.02,0.37,7.56,-38.57,
0.23,1.08,0.26,13.93,5.88-30.73,
0.22,1.16,0.25,19.25,8.26-25.90,
0.19,1.22,0.24,17.29,4.27-19.67,
0.20,1.22,0.26,12.67,-18.27,
0.19,1.22,0.28,6.30,-20.02,
0.14,1.22,0.27,2.38,-19.60,
0.08,1.23,0.27,-1.12,-18.62,
0.03,1.23,0.27,-6.02,-16.24,
0.01,1.22,0.25,-11.76,-13.02,
-0.02,1.21,0.23,-16.17,-9.10,
-0.04,1.24,0.20,-18.27,-8.61,
-0.07,1.33,0.14,-20.65,-9.73,
-0.13,1.45,0.10,-25.41,-13.02,
-0.16,1.48,0.17,-26.67,-15.19,
-0.16,1.57,0.24,-27.37,-17.152.38,
-0.18,1.55,0.30,-26.32,-17.154.62,
-0.17,1.51,0.35,-28.42,-13.374.69,
-0.18,1.43,0.39,-37.03,-8.123.50,
-0.19,1.36,0.43,-48.51,-3.853.22,
-0.17,1.27,0.43,-64.26,-1.054.27,
-0.13,1.18,0.42,-83.51,1.335.67,
-0.09,1.05,0.43,-102.55,4.557.07,
-0.06,0.95,0.47,-117.46,8.268.96,
-0.02,0.90,0.50,-130.62,10.2213.44,
0.01,0.88,0.51,-148.89,10.7120.37,
0.04,0.92,0.52,-161.42,10.1529.12,
0.04,0.98,0.48,-172.90,8.1238.85,
0.03,1.03,0.46,-182.35,2.7351.17,
-0.01,1.03,0.46,-185.15,-6.5160.55,
-0.05,1.04,0.46,-178.43,-18.5568.67,
-0.06,1.04,0.48,-167.37,-25.9074.83,
-0.07,0.99,0.50,-155.61,-28.4979.03,
-0.02,0.93,0.52,-141.19,-24.0182.67,
-0.02,0.95,0.47,-124.39,-17.6480.22,
0.04,0.83,0.41,-99.68,-9.1778.75,
0.04,0.83,0.35,-79.59,0.1476.72,
0.03,0.79,0.39,-69.93,7.1473.43,
0.07,0.78,0.47,-62.44,19.2571.75,
-0.02,0.73,0.59,-63.91,32.0668.67,
-0.03,0.77,0.62,-74.69,47.9564.40,
-0.08,0.81,0.49,-94.01,56.0058.66,
-0.07,0.77,0.46,-114.66,57.1954.32,
-0.06,0.72,0.53,-127.75,51.1053.41,
-0.02,0.74,0.59,-132.86,40.4655.51,
-0.03,0.71,0.58,-140.70,26.6060.48,
-0.05,0.62,0.49,-143.92,23.3862.93,
-0.11,0.47,0.39,-140.56,30.8059.01,
-0.11,0.34,0.33,-118.65,39.7654.32,
-0.11,0.30,0.32,-91.42,44.8751.03,
-0.02,0.29,0.34,-62.65,43.1952.57,
-0.10,1.34,0.45,-74.41,42.8491.28,
-0.05,0.23,0.40,-86.94,22.4088.62,
-0.10,0.19,0.48,-80.29,15.3383.93,
-0.07,0.28,0.48,-86.03,16.5975.11,
-0.08,0.24,0.49,-94.01,21.5670.42,
-0.06,0.22,0.54,-95.55,27.5163.21,
-0.07,0.17,0.55,-91.91,32.7653.90,
-0.05,0.09,0.53,-77.56,34.7248.44,
-0.07,-0.02,0.57,-49.14,33.0445.50,
-0.03,0.06,0.61,-23.73,29.6140.95,
0.02,0.14,0.67,0.07,21.4935.49,
0.03,0.23,0.71,15.05,8.2628.63,
0.09,0.27,0.79,21.63,0.1421.98,
0.16,0.23,0.89,32.83,-2.2416.45,
0.21,0.24,0.95,44.17,-0.9111.62,
0.25,0.25,0.96,57.68,1.686.16,
0.25,0.25,0.97,73.71,3.29-2.38,
0.23,0.28,0.91,89.53,2.38-12.25,
0.15,0.35,0.85,101.99,-22.61,
0.19,0.59,0.82,93.80,-19.95,
0.10,0.54,0.77,119.07,-15.474.97,
0.03,0.47,1.11,125.86,-14.9114.84,
-0.12,0.87,1.33,78.40,-17.2915.12,
-0.31,1.05,1.10,65.73,-13.09,
-0.45,1.49,1.13,89.95,33.67-33.74,
-0.39,1.62,1.00,109.13,20.44-42.77,
-0.34,1.49,0.83,102.34,15.89-46.27,
-0.11,1.29,0.66,88.27,16.31-38.78,
-0.04,0.87,0.61,87.85,16.80-33.88,
-0.02,0.55,0.49,96.25,11.76-33.95,
-0.02,0.54,0.43,102.06,7.14-34.58,
-0.03,0.48,0.37,99.26,-38.43,
0.00,0.59,0.38,95.62,-45.15,
-0.02,0.63,0.38,92.12,-46.90,
-0.04,0.71,0.39,89.25,-46.62,
-0.11,0.77,0.42,85.05,-50.75,
-0.22,0.84,0.44,81.76,-61.11,
-0.27,0.94,0.46,81.76,-76.23,
-0.27,1.03,0.46,86.94,-88.62,
-0.22,1.15,0.44,103.95,-95.13,
-0.15,1.21,0.43,112.35,-96.67,
-0.08,1.13,0.41,116.69,-96.95,
0.01,1.06,0.38,118.65,-95.34,
0.11,0.88,0.35,121.94,-96.53,
0.22,0.85,0.33,126.14,-100.17,
0.25,0.77,0.29,127.54,-100.87,
0.30,0.77,0.27,130.06,-98.98,
0.32,0.85,0.32,123.06,-96.46,
0.33,0.90,0.31,111.44,-84.63,
0.24,0.90,0.25,108.22,-79.52,
0.21,0.96,0.22,105.21,-73.71,
0.13,0.98,0.21,98.77,-67.97,
0.08,0.98,0.22,85.12,-62.30,
0.07,0.93,0.25,81.13,-52.43,
0.04,0.89,0.28,77.14,-41.16,
-0.01,0.85,0.28,74.69,-28.35,
-0.02,0.81,0.25,70.84,2.17-19.60,
-0.03,0.80,0.25,63.21,6.79-18.83,
0.01,0.79,0.25,54.46,7.84-20.23,
0.00,0.77,0.23,45.78,6.37-21.49,
-0.03,0.72,0.22,43.12,0.35-19.46,
0.00,0.69,0.24,44.59,-21.98,
-0.05,0.69,0.24,48.16,-21.42,
-0.09,0.78,0.23,53.41,-28.63,
-0.16,0.83,0.19,53.55,-38.57,
-0.16,0.92,0.18,48.93,-52.85,
-0.14,0.96,0.19,39.27,-68.39,
-0.05,0.92,0.22,32.83,-69.65,
0.01,0.95,0.24,26.74,-68.95,
0.11,0.98,0.26,18.90,-59.64,
0.18,1.02,0.25,13.23,-46.20,
0.20,1.06,0.24,6.51,-35.00,
0.20,1.09,0.24,2.10,-28.28,
0.20,1.12,0.23,3.71,1.40-22.54,
0.19,1.14,0.24,4.76,5.46-20.23,
0.19,1.15,0.24,5.95,7.98-17.29,
0.18,1.11,0.23,8.12,7.49-14.14,
0.15,1.08,0.23,10.36,4.69-10.15,
0.11,1.06,0.25,13.65,1.89-7.42,
0.06,1.06,0.26,18.41,1.26-7.00,
0.02,1.11,0.27,21.21,2.24-8.47,
-0.02,1.21,0.29,20.23,3.50-11.69,
-0.04,1.31,0.31,14.14,4.27-14.14,
-0.07,1.41,0.33,3.99,4.90-16.87,
-0.06,1.53,0.26,-9.45,4.90-16.03,
-0.06,1.58,0.20,-36.89,5.11-11.41,
-0.09,1.55,0.20,-53.06,6.51-3.01,
-0.10,1.48,0.27,-54.25,9.106.09,
-0.15,1.44,0.32,-50.26,8.9613.58,
-0.18,1.41,0.36,-46.97,5.8115.12,
-0.22,1.37,0.39,-50.54,3.9217.22,
-0.24,1.31,0.37,-69.58,1.3321.21,
-0.22,1.23,0.36,-89.32,-0.9823.66,
-0.16,1.11,0.40,-105.91,0.7725.62,
-0.08,1.00,0.45,-116.76,6.3727.58,
-0.02,0.95,0.52,-127.82,12.3230.59,
0.01,0.97,0.57,-142.31,18.1334.02,
0.07,0.99,0.57,-155.47,22.0537.52,
0.09,1.00,0.51,-168.77,21.1442.77,
0.11,0.98,0.46,-174.16,16.1751.59,
0.06,0.99,0.43,-169.89,9.5261.60,
0.02,1.01,0.42,-162.26,4.3470.07,
-0.04,1.00,0.41,-153.93,1.1974.69,
-0.11,0.99,0.41,-145.95,0.7075.67,
-0.11,0.88,0.40,-128.66,4.6974.55,
-0.11,0.83,0.38,-107.73,12.1171.75,
-0.13,0.81,0.41,-95.20,16.8066.36,
-0.14,0.75,0.42,-81.69,20.6562.09,
-0.13,0.74,0.42,-70.56,22.2658.94,
-0.11,0.75,0.46,-62.44,22.1956.49,
-0.08,0.79,0.50,-57.82,16.8757.12,
-0.02,0.81,0.54,-55.37,10.9260.34,
0.00,0.83,0.59,-58.45,8.8263.49,
0.01,0.85,0.63,-69.93,8.1264.47,
0.05,0.88,0.66,-87.85,10.2266.57,
0.04,0.77,0.62,-107.17,14.5667.90,
0.02,0.67,0.54,-117.67,21.9869.16,
0.02,0.60,0.46,-119.07,33.8169.16,
-0.06,0.58,0.41,-107.87,41.7968.60,
-0.04,0.55,0.37,-96.18,46.9067.13,
-0.11,0.51,0.32,-86.87,52.5065.31,
-0.13,0.46,0.32,-76.37,55.5857.54,
-0.14,0.47,0.33,-67.41,56.7047.88,
-0.10,0.44,0.38,-60.48,51.1042.56,
-0.10,0.43,0.41,-59.15,42.7739.76,
-0.11,0.40,0.43,-69.02,33.5339.62,
-0.08,0.94,0.43,-81.13,37.4559.01,
-0.04,0.18,0.46,-108.85,22.9662.23,
-0.15,0.21,0.48,-92.33,24.2258.94,
-0.18,0.25,0.51,-83.02,29.9649.91,
-0.14,0.19,0.52,-75.53,32.6244.52,
-0.09,0.17,0.53,-60.41,35.0038.01,
-0.05,0.16,0.55,-45.92,31.7131.50,
-0.04,0.13,0.57,-30.80,22.0525.69,
0.01,0.18,0.60,-15.89,12.3918.13,
0.02,0.18,0.68,2.38,1.1212.95,
0.02,0.21,0.77,25.48,-3.996.16,
0.02,0.25,0.85,45.22,-11.48,
0.07,0.28,0.90,57.96,-26.25,
0.14,0.30,0.93,70.14,-37.31,
0.17,0.38,0.90,80.36,-44.87,
0.15,0.61,0.87,72.31,-45.08,
0.15,0.59,0.77,92.61,-38.50,
0.15,0.39,0.86,113.40,-35.07,
0.00,0.57,1.23,110.18,-34.86,
-0.06,0.96,1.24,69.23,-35.28,
-0.24,1.22,1.25,78.89,-36.47,
-0.19,1.74,1.23,104.16,-42.98,
-0.15,1.77,1.13,106.96,-44.73,
-0.04,1.59,0.90,77.91,9.45-41.86,
0.02,1.04,0.71,71.89,18.34-34.37,
0.01,0.60,0.56,82.53,22.26-30.59,
0.04,0.43,0.41,90.23,21.70-27.72,
0.08,0.39,0.34,92.40,17.22-28.84,
0.06,0.38,0.34,93.38,12.18-31.43,
0.02,0.43,0.35,94.92,3.85-29.89,
-0.01,0.52,0.35,94.15,-30.94,
-0.08,0.56,0.36,97.93,-38.01,
-0.15,0.66,0.41,99.96,-46.55,
-0.23,0.81,0.46,99.96,-57.75,
-0.26,0.97,0.45,102.55,-70.28,
-0.24,1.15,0.44,111.23,-94.22,
-0.18,1.24,0.41,119.91,-83.37,
-0.06,1.22,0.43,126.07,-85.19,
0.04,1.18,0.42,126.84,-84.21,
0.07,1.10,0.40,122.57,-87.92,
0.14,0.96,0.40,120.96,-89.18,
0.17,0.87,0.34,115.57,-90.86,
0.16,0.83,0.30,115.85,-98.00,
0.20,0.86,0.30,115.29,-97.09,
0.18,0.86,0.30,104.30,-90.23,
0.19,0.89,0.29,98.00,-83.65,
0.15,0.90,0.26,91.98,-77.00,
0.10,0.88,0.24,85.05,-70.42,
0.04,0.91,0.22,81.06,-50.19,
0.01,0.89,0.25,80.71,-61.95,
0.00,0.88,0.26,77.91,-53.27,
-0.03,0.83,0.26,74.69,-45.64,
-0.01,0.82,0.23,70.63,-38.01,
0.03,0.81,0.19,66.15,-30.52,
0.03,0.78,0.16,64.47,-27.79,
-0.01,0.74,0.16,63.14,-31.01,
0.01,0.76,0.20,62.72,-34.44,
-0.03,0.75,0.18,64.89,-40.18,
0.01,0.76,0.20,66.43,-38.29,
-0.04,0.79,0.17,69.79,-42.14,
-0.09,0.85,0.17,67.41,-53.97,
-0.11,0.90,0.20,58.45,-64.54,
-0.10,0.91,0.22,47.11,-75.95,
-0.09,0.92,0.20,31.15,-81.20,
-0.01,0.91,0.19,20.51,-80.50,
0.09,0.92,0.21,14.49,-72.52,
0.16,0.93,0.22,10.43,-59.57,
0.21,0.95,0.20,9.87,-50.40,
0.23,0.98,0.18,10.43,-40.46,
0.23,1.00,0.18,12.46,-27.65,
0.24,1.07,0.18,19.04,0.21-21.56,
0.22,1.10,0.18,22.75,1.54-17.08,
0.18,1.14,0.16,22.68,-13.79,
0.16,1.16,0.20,20.23,-11.06,
0.13,1.19,0.23,16.66,-8.75,
0.05,1.21,0.21,9.45,-8.61,
-0.02,1.21,0.21,5.46,-10.43,
-0.05,1.24,0.24,-0.21,-14.49,
-0.06,1.25,0.28,-6.16,-16.94,
-0.07,1.25,0.31,-10.64,-16.38,
-0.07,1.35,0.31,-12.46,-14.28,
-0.07,1.49,0.18,-21.07,2.73-12.53,
-0.08,1.54,0.12,-35.35,2.17-7.98,
-0.10,1.53,0.16,-44.45,3.01-0.21,
-0.10,1.55,0.22,-41.72,7.077.28,
-0.13,1.48,0.27,-38.36,8.1911.83,
-0.15,1.46,0.33,-38.43,7.7012.88,
-0.19,1.43,0.37,-44.17,6.0214.07,
-0.24,1.36,0.38,-56.07,3.2916.24,
-0.24,1.28,0.37,-73.01,2.2418.06,
-0.17,1.16,0.39,-93.80,4.1319.11,
-0.11,1.04,0.47,-105.49,8.5419.95,
-0.06,0.98,0.49,-116.34,12.7421.28,
-0.02,0.96,0.51,-129.64,17.7824.92,
0.03,0.97,0.52,-144.20,25.2731.15,
0.09,1.00,0.51,-160.51,30.3838.99,
0.08,1.04,0.45,-176.26,27.5148.58,
0.08,1.04,0.42,-182.35,20.0959.50,
0.01,1.06,0.41,-175.98,10.6469.72,
0.01,1.05,0.40,-159.88,3.0178.12,
-0.04,1.08,0.39,-147.28,-0.6380.78,
-0.08,1.04,0.39,-137.83,-2.0381.48,
-0.03,0.92,0.38,-123.34,2.9480.92,
-0.07,0.88,0.36,-100.73,8.4075.39,
-0.07,0.82,0.35,-88.62,17.3669.30,
-0.09,0.76,0.35,-79.03,30.5963.21,
-0.12,0.76,0.41,-72.17,41.2354.11,
-0.16,0.78,0.43,-70.84,46.1348.93,
-0.14,0.80,0.47,-78.75,43.8944.17,
-0.06,0.86,0.46,-87.71,37.8044.80,
-0.03,0.83,0.50,-98.98,29.1944.94,
-0.03,0.80,0.54,-116.34,20.0947.95,
-0.01,0.73,0.54,-132.23,15.5453.13,
-0.04,0.59,0.53,-146.86,14.8456.56,
-0.07,0.47,0.49,-151.97,20.5857.47,
-0.06,0.41,0.43,-141.54,30.5954.11,
-0.10,0.41,0.35,-110.67,36.5448.44,
-0.12,0.40,0.35,-90.79,37.2446.69,
-0.07,0.41,0.34,-71.40,33.4645.36,
-0.05,0.47,0.39,-62.58,24.0846.27,
-0.03,0.51,0.42,-56.98,11.0648.79,
-0.04,0.49,0.45,-63.00,5.3247.95,
-0.37,1.16,0.48,-80.43,2.73100.31,
-0.08,0.23,0.47,-113.82,7.3578.75,
-0.11,0.21,0.59,-105.98,15.6874.48,
-0.06,0.17,0.61,-92.47,23.8762.02,
-0.03,0.11,0.61,-78.82,32.6950.75,
0.01,-0.01,0.58,-59.08,38.0143.47,
-0.01,-0.02,0.54,-35.84,35.0734.30,
0.00,0.03,0.51,-16.80,26.3927.51,
0.02,0.06,0.54,-2.73,13.7921.77,
0.01,0.12,0.61,12.11,-1.3314.70,
0.03,0.18,0.69,30.80,-12.466.79,
0.03,0.24,0.78,45.71,-17.501.75,
0.10,0.25,0.87,59.92,-20.37,
0.17,0.32,0.94,75.74,-26.95,
0.22,0.33,0.94,92.61,-33.67,
0.13,0.55,0.90,95.55,-40.53,
0.22,0.62,0.85,107.87,-28.985.46,
0.20,0.59,1.05,115.85,-30.6615.54,
0.05,0.84,1.38,85.05,-34.5123.24,
-0.07,1.03,1.09,89.04,-22.6114.07,
-0.19,1.52,1.31,94.92,-13.30,
-0.19,1.86,1.12,94.99,19.88-30.45,
-0.19,1.69,1.00,74.90,19.88-38.36,
-0.13,1.10,0.74,74.20,26.88-36.12,
-0.01,0.80,0.62,88.48,31.22-31.78,
0.03,0.60,0.55,99.82,25.83-30.03,
0.08,0.50,0.48,98.00,18.83-30.66,
0.06,0.44,0.41,102.90,14.56-26.88,
0.02,0.47,0.37,106.26,10.50-27.72,
-0.06,0.53,0.34,104.86,5.88-28.77,
-0.10,0.60,0.33,105.77,1.61-31.08,
-0.18,0.64,0.32,106.33,-36.54,
-0.21,0.72,0.35,103.53,-46.27,
-0.19,0.82,0.37,99.68,-55.51,
-0.20,0.97,0.40,100.66,-64.82,
-0.18,1.10,0.41,102.83,-71.68,
-0.14,1.16,0.43,104.37,-76.09,
-0.08,1.14,0.44,107.59,-78.54,
-0.01,1.09,0.40,111.09,-78.96,
0.06,1.05,0.35,110.95,-81.55,
0.10,0.97,0.33,106.05,-84.35,
0.14,0.93,0.32,102.48,-87.99,
0.14,0.90,0.28,97.72,-91.35,
0.09,0.82,0.27,99.33,-96.88,
0.09,0.87,0.30,92.96,-97.23,
0.08,0.87,0.28,84.56,-93.59,
0.07,0.86,0.27,83.79,-88.97,
0.05,0.89,0.37,83.65,-87.64,
0.07,0.92,0.27,79.94,-87.08,
0.07,0.91,0.30,75.25,-82.60,
0.09,0.88,0.28,75.04,-75.53,
0.10,0.86,0.28,74.20,-68.11,
0.15,0.86,0.26,74.27,-61.39,
0.13,0.84,0.25,70.70,-54.53,
0.10,0.82,0.21,68.32,-49.56,
0.05,0.80,0.15,67.90,-47.04,
0.06,0.79,0.17,63.70,-43.40,
0.05,0.77,0.18,59.29,-41.86,
0.05,0.77,0.20,57.89,-42.70,
0.02,0.75,0.19,62.93,-38.64,
-0.02,0.82,0.22,68.32,-39.06,
-0.12,0.90,0.24,66.71,-45.92,
-0.18,0.97,0.21,59.71,-59.22,
-0.19,0.93,0.20,50.33,-73.71,
-0.12,0.91,0.20,41.58,-78.19,
-0.03,0.91,0.19,32.97,-80.15,
0.08,0.89,0.20,25.97,-79.87,
0.14,0.88,0.18,22.89,-68.74,
0.21,0.96,0.15,21.98,-61.53,
0.19,1.03,0.14,20.30,-48.65,
0.15,1.09,0.14,18.90,-37.87,
0.18,1.13,0.13,18.27,-34.30,
0.18,1.15,0.18,20.86,-31.99,
0.17,1.21,0.37,21.91,-29.68,
0.16,1.22,0.24,17.78,-27.72,
0.15,1.22,0.21,10.43,-26.25,
0.14,1.21,0.22,4.83,-25.27,
0.11,1.19,0.21,-4.83,-23.94,
0.09,1.17,0.22,-8.75,-20.58,
0.05,1.20,0.22,-10.15,-16.38,
0.02,1.27,0.26,-13.16,-13.30,
0.01,1.30,0.26,-14.21,1.61-13.44,
-0.02,1.33,0.27,-17.43,1.89-13.65,
-0.08,1.43,0.24,-21.98,0.07-11.55,
-0.06,1.48,0.08,-35.91,-9.03,
-0.11,1.40,0.06,-54.25,-6.162.66,
-0.13,1.39,0.16,-59.15,-6.5111.69,
-0.13,1.33,0.24,-57.96,-1.7520.51,
-0.19,1.25,0.31,-53.20,-2.8025.06,
-0.27,1.24,0.37,-55.23,-6.0924.78,
-0.31,1.21,0.38,-66.22,-8.8923.45,
-0.26,1.13,0.36,-80.36,-8.6821.21,
-0.15,1.07,0.40,-97.93,-4.6218.55,
-0.05,0.97,0.47,-103.95,3.2215.40,
0.01,0.95,0.51,-110.74,12.5316.80,
0.03,1.01,0.52,-121.66,18.5521.28,
0.07,1.07,0.49,-137.34,22.0525.62,
0.11,1.12,0.44,-155.68,21.1432.41,
0.15,1.13,0.40,-177.73,17.0140.11,
0.22,1.02,0.41,-180.88,12.6753.76,
0.18,1.05,0.35,-172.06,5.4665.10,
0.11,1.07,0.38,-163.17,1.9674.20,
0.08,1.05,0.44,-152.53,4.1379.45,
0.04,0.94,0.46,-137.55,11.2781.20,
0.01,0.89,0.41,-114.24,20.0280.57,
0.00,0.83,0.36,-97.02,27.3777.91,
-0.02,0.80,0.34,-88.27,32.9774.76,
-0.06,0.76,0.37,-79.45,39.5570.84,
-0.12,0.74,0.45,-75.60,45.7163.14,
-0.13,0.75,0.48,-74.69,47.0458.31,
-0.12,0.80,0.51,-77.14,43.6154.18,
-0.10,0.82,0.50,-92.82,38.1550.40,
-0.10,0.83,0.44,-100.17,28.3548.51,
-0.12,0.79,0.52,-106.19,15.4751.80,
-0.04,0.78,0.56,-115.64,5.6761.25,
-0.04,0.69,0.55,-133.91,-2.9467.55,
-0.04,0.60,0.54,-139.86,2.2466.57,
-0.11,0.46,0.44,-128.10,14.9166.64,
-0.14,0.41,0.37,-107.94,27.8658.66,
-0.10,0.42,0.32,-83.30,34.7950.82,
0.01,0.43,0.32,-65.66,34.3046.62,
0.10,0.46,0.38,-52.15,26.9547.18,
0.00,0.43,0.42,-47.32,17.6473.78,
0.26,0.35,0.41,-98.35,15.8987.99,
0.00,0.22,0.55,-93.52,12.7482.95,
0.01,0.27,0.60,-90.86,21.9873.85,
-0.04,0.23,0.60,-88.90,32.2067.27,
-0.06,0.13,0.59,-84.35,42.1454.95,
-0.05,0.19,0.60,-73.22,46.2046.76,
-0.04,0.20,0.58,-59.85,43.0539.76,
0.00,0.20,0.56,-21.63,34.4433.81,
0.04,0.20,0.56,-15.68,24.5027.30,
0.07,0.20,0.60,5.88,16.7320.58,
0.06,0.18,0.64,28.35,11.3413.44,
0.05,0.17,0.72,49.49,7.983.57,
0.07,0.19,0.81,63.21,5.46-5.04,
0.11,0.19,0.88,65.10,-16.66,
0.18,0.16,0.84,90.30,-24.78,
0.15,0.26,0.84,94.71,-43.96,
0.16,0.52,0.77,97.93,-43.75,
0.11,0.53,0.78,106.33,-34.02,
0.11,0.31,0.89,134.33,-28.915.32,
-0.02,0.85,1.38,114.17,-36.6112.18,
0.02,1.19,1.30,69.72,-27.936.51,
-0.10,1.58,1.27,97.58,-15.89,
-0.10,2.25,1.13,120.75,10.71-31.92,
-0.22,2.11,1.01,93.03,15.47-33.18,
-0.03,1.58,0.77,66.99,32.13-26.60,
0.06,0.91,0.63,63.91,48.37-27.37,
-0.01,0.47,0.49,80.99,52.78-26.95,
0.03,0.37,0.41,97.51,43.40-27.72,
0.00,0.31,0.36,102.69,27.79-28.77,
-0.01,0.38,0.35,102.27,17.43-31.78,
0.00,0.40,0.29,104.16,7.35-31.78,
-0.08,0.49,0.24,107.66,0.28-34.65,
-0.18,0.53,0.22,111.93,-46.27,
-0.29,0.64,0.26,109.06,-59.22,
-0.31,0.80,0.31,100.31,-74.27,
-0.31,0.93,0.35,105.49,-85.05,
-0.27,1.10,0.39,117.46,-92.75,
-0.20,1.26,0.40,126.98,-95.62,
-0.11,1.23,0.41,130.55,-96.53,
0.07,1.19,0.42,131.25,-93.73,
0.13,1.10,0.34,125.58,-92.89,
0.18,1.00,0.29,118.93,-95.20,
0.16,0.92,0.27,107.66,-101.78,
0.18,0.80,0.26,102.48,-102.34,
0.19,0.79,0.27,101.01,-101.15,
0.19,0.80,0.26,95.41,-93.94,
0.18,0.83,0.23,94.01,-90.79,
0.14,0.85,0.25,87.57,-87.15,
0.14,0.88,0.24,80.50,-80.92,
0.13,0.89,0.27,76.30,-72.80,
0.10,0.85,0.24,73.57,-63.77,
0.09,0.87,0.22,72.03,-56.84,
0.12,0.83,0.24,65.94,-44.24,
0.14,0.81,0.20,58.03,-32.62,
0.14,0.81,0.15,52.99,-22.19,
0.10,0.82,0.14,47.11,4.48-18.97,
0.04,0.82,0.16,44.66,2.38-15.40,
-0.04,0.81,0.19,45.43,-14.63,
-0.10,0.85,0.17,46.83,-26.04,
-0.10,0.84,0.23,48.51,-30.10,
-0.12,0.83,0.24,56.14,-38.50,
-0.11,0.90,0.26,54.46,-46.83,
-0.12,0.91,0.25,48.93,-54.04,
-0.06,0.90,0.19,42.28,-65.94,
0.03,0.92,0.17,38.57,-66.92,
0.10,0.90,0.16,33.67,-62.23,
0.10,0.96,0.14,29.89,-61.32,
0.11,1.04,0.13,20.79,-52.99,
0.11,1.06,0.14,17.78,-43.26,
0.12,1.05,0.15,16.94,-35.00,
0.15,1.00,0.18,15.96,-27.09,
0.23,0.94,0.18,14.63,-21.70,
0.26,0.90,0.19,14.70,-19.53,
0.25,0.89,0.16,17.43,-18.06,
0.21,0.93,0.11,19.11,-16.59,
0.17,0.99,0.08,20.65,-12.18,
0.10,1.05,0.10,19.60,-7.42,
0.03,1.14,0.12,15.47,4.69-7.49,
-0.03,1.18,0.16,9.38,10.92-10.43,
-0.08,1.24,0.19,2.17,12.46-13.65,
-0.09,1.28,0.20,-3.43,9.73-16.17,
-0.11,1.35,0.18,-8.75,3.64-18.55,
-0.12,1.36,0.19,-12.53,-22.33,
-0.08,1.43,0.14,-16.45,-25.06,
-0.04,1.47,0.05,-25.41,-21.21,
-0.07,1.48,0.04,-34.16,-11.76,
-0.10,1.53,0.14,-36.96,2.380.49,
-0.14,1.52,0.25,-33.46,9.598.61,
-0.21,1.55,0.30,-32.27,9.4512.95,
-0.25,1.56,0.30,-38.99,7.5613.93,
-0.24,1.48,0.29,-49.77,6.0915.47,
-0.23,1.37,0.28,-61.18,4.4816.73,
-0.19,1.25,0.29,-72.03,3.6417.50,
-0.14,1.13,0.32,-84.56,3.2217.64,
-0.11,1.02,0.38,-93.94,3.9217.64,
-0.08,0.96,0.44,-103.32,6.1617.36,
-0.06,0.95,0.45,-113.75,7.4218.34,
-0.04,0.95,0.47,-123.55,9.4521.77,
0.00,1.00,0.49,-135.24,12.8827.86,
0.02,0.99,0.49,-147.49,14.0037.52,
0.00,1.06,0.45,-159.81,9.6646.83,
-0.03,1.08,0.38,-171.85,-1.0554.25,
-0.01,1.03,0.41,-173.67,-8.5463.07,
-0.01,0.99,0.39,-167.23,-14.1470.21,
-0.03,0.98,0.37,-153.51,-17.9275.95,
-0.04,1.00,0.38,-139.93,-14.9177.14,
0.00,0.93,0.40,-120.96,-7.4976.09,
-0.02,0.88,0.39,-101.01,0.0772.24,
-0.04,0.76,0.39,-86.03,9.4566.08,
-0.06,0.66,0.41,-74.83,21.2158.03,
-0.09,0.64,0.42,-61.18,35.0052.92,
-0.12,0.68,0.44,-59.01,39.1346.27,
-0.10,0.74,0.47,-66.57,37.2441.72,
-0.07,0.79,0.48,-76.72,28.2839.97,
0.00,0.78,0.54,-83.58,17.7141.65,
0.07,0.63,0.56,-94.92,10.5046.48,
0.01,0.67,0.57,-108.01,7.4252.22,
-0.03,0.60,0.55,-115.01,7.1458.17,
-0.06,0.54,0.54,-143.08,9.0361.81,
-0.11,0.45,0.46,-129.22,18.3458.31,
-0.17,0.41,0.38,-121.45,29.8954.32,
-0.10,0.49,0.33,-105.63,40.1846.06,
-0.09,0.48,0.34,-89.88,40.9539.83,
0.00,0.49,0.34,-69.16,35.2137.87,
0.04,0.50,0.39,-59.99,24.9934.72,
0.03,0.45,0.43,-60.34,14.7734.93,
0.01,0.42,0.52,-68.60,8.6135.49,
0.00,0.41,0.59,-77.84,7.7036.26,
-0.03,1.40,0.64,-110.18,12.1162.30,
-0.04,0.23,0.60,-108.15,8.9661.04,
-0.04,0.19,0.59,-97.02,15.0557.54,
-0.02,0.23,0.57,-80.43,23.3850.47,
-0.08,0.19,0.53,-59.29,24.7143.40,
-0.11,0.23,0.53,-46.90,21.0734.93,
-0.06,0.21,0.56,-30.87,13.0928.77,
-0.01,0.23,0.60,-14.00,6.7919.32,
0.06,0.21,0.64,3.64,-0.1413.44,
0.11,0.18,0.71,23.38,-0.357.07,
0.12,0.18,0.77,46.20,0.771.05,
0.15,0.15,0.83,58.52,-5.46,
0.16,0.21,0.90,67.48,-16.03,
0.19,0.22,0.93,77.70,-29.82,
0.22,0.31,0.90,86.03,-43.54,
0.20,0.61,0.89,78.54,-58.52,
0.24,0.62,0.78,82.95,-44.87,
0.20,0.50,0.83,81.20,-29.540.56,
0.05,0.63,1.33,56.35,-13.4410.64,
0.01,0.99,1.49,-4.69,1.8213.44,
-0.05,1.20,1.17,0.98,25.061.68,
-0.01,1.54,1.23,42.00,40.95-16.59,
-0.07,1.70,1.17,80.01,36.33-30.73,
-0.19,1.53,0.93,84.77,29.96-36.19,
-0.10,1.24,0.83,78.96,31.36-37.24,
-0.05,0.86,0.71,85.47,35.42-38.50,
-0.09,0.58,0.59,91.98,29.12-38.71,
-0.07,0.39,0.53,98.56,16.52-38.64,
-0.07,0.49,0.49,104.65,6.93-39.76,
-0.08,0.52,0.44,102.48,1.40-40.81,
-0.11,0.56,0.39,99.05,-44.38,
-0.15,0.61,0.39,94.57,-49.07,
-0.16,0.67,0.40,90.65,-52.01,
-0.15,0.77,0.41,86.52,-55.09,
-0.14,0.82,0.43,86.17,-57.75,
-0.12,0.89,0.43,89.74,-62.79,
-0.12,0.95,0.41,98.42,-66.64,
-0.10,0.99,0.40,105.77,-70.00,
-0.05,1.01,0.39,115.29,-73.85,
0.01,1.00,0.37,121.80,-75.39,
0.05,0.94,0.35,125.44,-76.51,
0.06,0.91,0.33,128.31,-82.04,
0.13,0.92,0.33,127.33,-81.90,
0.14,0.92,0.32,120.40,-79.80,
0.12,0.89,0.30,118.23,-81.48,
0.13,0.90,0.31,114.31,-83.93,
0.12,0.91,0.31,109.83,-85.33,
0.12,0.94,0.34,109.13,-87.71,
0.10,0.94,0.33,103.67,-84.14,
0.07,0.95,0.29,98.77,-83.65,
0.05,0.99,0.31,93.87,-80.22,
0.06,1.02,0.23,85.05,-77.14,
0.01,1.01,0.23,78.12,-75.46,
0.01,0.95,0.21,71.05,-72.45,
0.01,0.91,0.17,63.07,-70.91,
0.03,0.83,0.17,56.77,-65.03,
0.04,0.78,0.18,50.47,-59.99,
0.04,0.78,0.17,46.41,-53.97,
0.06,0.77,0.15,46.34,-45.71,
0.06,0.76,0.15,46.76,-36.05,
0.03,0.77,0.12,50.68,-32.13,
0.00,0.75,0.14,50.19,-30.45,
0.01,0.76,0.15,49.56,-29.82,
-0.02,0.77,0.10,51.24,-35.35,
-0.02,0.78,0.10,53.06,-43.96,
-0.02,0.82,0.11,51.17,-49.21,
-0.06,0.86,0.13,47.04,-51.80,
-0.04,0.91,0.16,41.65,-56.35,
-0.04,0.92,0.20,40.74,-57.12,
-0.02,0.96,0.21,42.49,-54.39,
0.00,0.98,0.20,40.25,-49.49,
0.04,0.98,0.18,36.75,-41.30,
0.12,1.04,0.16,27.65,-38.92,
0.13,1.01,0.15,21.35,-34.58,
0.17,1.00,0.15,17.50,-34.93,
0.19,0.99,0.16,15.96,-35.28,
0.18,0.98,0.16,12.95,-34.37,
0.21,1.01,0.17,13.37,-31.92,
0.18,1.03,0.17,11.55,-30.17,
0.17,1.04,0.19,12.53,-25.27,
0.16,1.07,0.20,14.07,-20.58,
0.11,1.09,0.22,14.77,-18.69,
0.09,1.10,0.23,14.00,-16.17,
0.12,1.13,0.23,11.83,4.06-18.62,
0.13,1.14,0.22,9.73,9.45-22.19,
0.13,1.19,0.19,6.44,12.88-23.52,
0.14,1.26,0.16,0.35,14.00-21.98,
0.14,1.32,0.15,-6.58,13.44-19.39,
0.13,1.35,0.18,-11.06,14.28-16.59,
0.09,1.37,0.20,-15.75,15.54-13.23,
0.02,1.42,0.18,-20.37,16.66-11.76,
-0.04,1.46,0.14,-28.56,17.57-9.03,
-0.10,1.47,0.11,-38.71,18.41-3.85,
-0.15,1.49,0.12,-47.67,19.812.24,
-0.22,1.50,0.12,-54.11,21.848.19,
-0.28,1.49,0.12,-64.05,22.6814.84,
-0.32,1.44,0.16,-71.26,21.7721.56,
-0.31,1.36,0.27,-75.95,19.9525.97,
-0.33,1.29,0.34,-81.76,16.0329.33,
-0.35,1.24,0.38,-89.81,9.8028.28,
-0.31,1.19,0.41,-102.62,2.9425.20,
-0.25,1.11,0.45,-116.06,2.1021.49,
-0.18,1.03,0.45,-131.95,4.2721.00,
-0.08,0.97,0.48,-141.96,10.9223.94,
0.01,0.96,0.52,-150.22,19.4627.72,
0.05,0.99,0.53,-160.65,24.5733.53,
0.05,1.05,0.56,-175.14,24.5040.95,
0.07,1.06,0.52,-187.18,18.6948.72,
0.06,1.12,0.42,-185.43,7.5655.93,
0.06,1.11,0.38,-176.05,-2.3162.30,
0.09,1.10,0.41,-159.81,-3.1566.71,
0.09,1.05,0.41,-143.15,-1.1268.60,
0.12,0.93,0.42,-123.90,4.5571.19,
0.05,0.89,0.40,-106.26,12.6072.52,
0.01,0.84,0.38,-71.89,21.1473.36,
-0.09,0.81,0.37,-72.66,28.1471.75,
-0.11,0.79,0.41,-54.39,31.4371.12,
-0.13,0.81,0.52,-49.35,33.8169.23,
-0.12,0.84,0.59,-52.50,34.0267.34,
-0.10,0.87,0.61,-58.45,35.9866.22,
-0.04,0.93,0.65,-68.39,38.3667.34,
-0.10,0.84,0.63,-93.31,36.1267.34,
-0.07,0.78,0.58,-118.65,34.5166.50,
-0.03,0.65,0.50,-134.68,35.7763.91,
-0.05,0.42,0.44,-138.74,39.5560.34,
0.01,0.33,0.38,69.51,-65.03,
0.02,0.36,0.36,67.83,-65.03,
0.03,0.39,0.35,66.15,-64.75,
0.02,0.41,0.33,65.59,-64.89,
0.02,0.43,0.29,65.59,-64.68,
0.00,0.45,0.27,65.52,-61.32,
0.01,0.50,0.29,64.96,-59.92,
0.01,0.51,0.34,66.43,-62.02,
-0.01,0.52,0.38,67.62,-65.38,
-0.02,0.53,0.41,66.57,-69.44,
-0.02,0.54,0.43,68.81,-73.15,
0.01,0.60,0.43,74.48,-77.00,
0.05,0.67,0.43,79.66,-81.20,
0.10,0.72,0.43,79.87,-86.17,
0.18,0.75,0.42,74.83,-90.44,
0.22,0.74,0.43,65.24,-92.19,
0.23,0.71,0.43,58.94,-89.88,
0.23,0.69,0.47,55.86,-84.21,
0.23,0.70,0.52,54.53,-75.18,
0.20,0.71,0.54,57.33,-66.71,
0.17,0.78,0.57,61.04,-58.31,
0.18,0.87,0.61,62.37,-53.69,
0.21,0.93,0.66,61.04,-51.17,
0.23,1.01,0.68,56.21,-49.35,
0.25,1.05,0.68,47.39,-49.35,
0.26,1.06,0.66,36.26,-50.68,
0.24,1.02,0.62,21.84,-51.94,
0.21,0.93,0.59,8.40,-55.86,
0.18,0.77,0.67,-4.90,-58.66,
0.04,0.67,0.89,-9.17,-53.27,
-0.07,0.82,0.91,-6.51,-44.31,
-0.11,1.24,0.89,1.26,-36.75,
-0.15,1.16,0.79,17.43,-41.586.30,
-0.18,1.32,0.43,27.30,-73.7816.80,
-0.10,1.34,-0.06,67.69,-86.6623.31,
-0.04,1.32,-0.09,68.04,-80.7828.77,
0.04,1.32,0.11,70.98,-52.4330.03,
-0.02,1.48,-0.01,61.88,-27.9323.66,
-0.12,1.55,-0.17,55.93,-22.4712.18,
-0.12,1.54,-0.23,50.68,-32.768.68,
-0.08,1.63,-0.07,50.26,-41.518.47,
-0.11,1.54,0.26,29.47,-47.673.99,
-0.17,1.38,0.31,21.84,-56.35,
-0.22,1.28,0.20,14.98,-71.82,
-0.29,1.19,0.21,13.30,-89.81,
-0.26,1.26,0.13,21.14,-99.40,
-0.24,1.31,0.09,30.87,-110.81,
-0.20,1.35,0.01,44.24,-122.85,
-0.08,1.29,-0.03,53.97,-134.68,
-0.01,1.29,-0.07,54.81,-141.19,
0.04,1.28,-0.10,51.52,-142.59,
0.09,1.22,-0.08,46.06,-138.53,
0.13,1.15,-0.08,39.69,-130.76,
0.11,1.12,-0.03,29.47,-126.91,
0.12,1.07,0.02,18.90,-123.41,
0.11,1.02,0.05,15.12,-121.59,
0.09,0.97,0.03,13.37,-120.96,
0.03,0.93,0.03,15.05,-124.88,
-0.01,0.87,0.06,16.80,-126.35,
-0.04,0.82,0.03,20.16,-126.98,
-0.05,0.77,0.01,22.68,-128.59,
-0.04,0.74,-0.02,27.09,-131.25,
-0.01,0.75,-0.02,29.40,-135.03,
0.03,0.76,-0.01,30.31,-137.97,
0.06,0.77,0.01,31.01,-138.95,
0.10,0.79,0.02,31.92,-137.83,
0.13,0.78,0.01,33.46,-135.52,
0.16,0.79,0.04,33.74,-131.18,
0.18,0.78,0.04,33.39,-126.00,
0.20,0.80,0.05,33.32,-121.94,
0.21,0.81,0.06,33.32,-120.96,
0.22,0.84,0.04,31.85,-118.02,
0.22,0.90,0.07,30.10,-114.87,
0.19,0.92,0.08,28.35,-115.15,
0.18,0.96,0.10,24.36,-113.75,
0.21,0.99,0.09,20.51,-112.98,
0.23,1.02,0.06,15.82,-109.83,
0.22,1.05,0.09,10.29,-105.84,
0.23,1.07,0.12,8.40,-98.07,
0.24,1.09,0.11,7.35,-89.39,
0.23,1.09,0.10,7.28,-81.34,
0.24,1.09,0.08,7.42,-72.45,
0.24,1.10,0.06,6.37,-64.40,
0.28,1.09,0.08,5.74,-55.44,
0.29,1.11,0.13,4.06,-47.95,
0.27,1.12,0.17,-0.42,-40.74,
0.21,1.13,0.21,-6.86,-39.061.12,
0.16,1.14,0.23,-14.77,-41.934.13,
0.11,1.15,0.23,-23.52,-46.346.30,
0.10,1.20,0.19,-36.75,-51.038.68,
0.07,1.26,0.14,-53.83,-53.4815.61,
0.00,1.30,0.14,-73.29,-53.9027.09,
-0.10,1.30,0.19,-89.74,-54.9542.07,
-0.23,1.22,0.22,-105.77,-60.9759.78,
-0.35,1.17,0.26,-116.34,-71.2677.28,
-0.44,1.11,0.30,-125.44,-83.4490.79,
-0.47,1.01,0.33,-131.32,-96.25100.10,
-0.50,0.98,0.36,-136.85,-108.57100.17,
-0.54,1.00,0.43,-141.75,-122.9296.18,
-0.49,1.01,0.52,-139.37,-129.0190.44,
-0.46,1.17,0.54,-127.82,-129.8580.29,
-0.39,1.34,0.51,-123.13,-125.6566.22,
-0.28,1.37,0.45,-119.98,-111.1650.33,
-0.19,1.30,0.33,-112.56,-90.9329.89,
-0.13,1.14,0.29,-103.95,-68.4614.91,
-0.14,1.06,0.31,-105.56,-47.46,
-0.03,0.92,0.32,-108.36,-43.05,
0.04,0.89,0.34,-102.06,-38.64,
0.10,0.81,0.42,-91.77,-36.54,
0.08,0.79,0.42,-81.76,-32.76,
0.01,0.83,0.43,-79.24,-43.129.03,
-0.04,0.84,0.43,-81.27,-51.1717.64,
-0.05,0.80,0.44,-82.39,-53.2023.59,
-0.08,0.77,0.44,-77.21,-54.9525.41,
-0.10,0.75,0.45,-70.14,-55.5123.94,
-0.13,0.69,0.44,-59.99,-55.4419.53,
-0.14,0.62,0.44,-51.17,-52.718.54,
-0.14,0.55,0.41,-41.16,-50.750.21,
-0.13,0.53,0.37,-30.17,-57.47,
-0.05,0.46,0.35,-1.89,-63.77,
-0.02,0.47,0.36,-13.93,-67.76,
0.01,0.47,0.41,-14.00,-72.52,
0.00,0.47,0.41,-14.00,-74.76,
0.04,0.48,0.41,-10.29,-75.67,
0.04,0.49,0.43,-0.70,-73.22,
0.01,0.51,0.43,11.41,-74.34,
0.01,0.54,0.44,20.16,-75.39,
0.00,0.58,0.45,27.09,-78.40,
-0.02,0.59,0.50,31.01,-83.16,
0.00,0.56,0.49,42.35,-86.94,
-0.01,0.60,0.45,48.37,-86.73,
0.06,0.61,0.44,50.40,-80.99,
0.10,0.66,0.50,52.71,-73.08,
0.14,0.71,0.61,56.07,-62.58,
0.15,0.79,0.72,55.02,-54.67,
0.17,0.92,0.78,47.95,-50.05,
0.21,1.00,0.82,38.57,-46.48,
0.25,0.98,0.85,28.14,-42.77,
0.26,0.93,0.86,17.71,-40.39,
0.23,0.85,0.84,7.77,-39.06,
0.20,0.80,0.78,2.17,-37.52,
0.20,0.74,0.69,1.26,-33.32,
0.21,0.64,0.61,6.93,-26.250.63,
0.20,0.59,0.48,14.56,-26.255.95,
0.14,0.54,0.43,21.70,-31.7111.41,
0.06,0.51,0.48,31.15,-36.8217.99,
-0.01,0.59,0.54,43.96,-43.2621.56,
-0.09,0.74,0.57,60.62,-51.9423.59,
-0.18,1.07,0.58,89.67,-61.3924.43,
-0.27,1.61,0.37,118.09,-76.0926.46,
-0.41,2.12,0.34,105.28,-87.5719.04,
-0.59,1.94,0.37,57.75,-79.948.05,
-0.54,1.76,0.36,2.52,-59.781.33,
-0.37,1.21,0.33,-20.86,-45.290.21,
-0.30,0.84,0.23,-23.59,-57.12,
-0.19,0.70,0.12,-17.50,-75.25,
-0.14,0.58,-0.01,-6.37,-87.64,
-0.14,0.48,-0.07,12.39,-102.06,
-0.20,0.55,-0.13,52.64,-114.17,
-0.26,0.76,-0.13,51.87,-128.17,
-0.27,0.98,-0.03,57.33,-139.93,
-0.26,1.18,0.07,62.58,-147.70,
-0.27,1.38,0.14,69.79,-154.14,
-0.18,1.44,0.18,78.05,-157.43,
-0.07,1.42,0.14,83.93,-160.16,
0.03,1.33,0.11,81.83,-165.55,
0.15,1.21,0.09,76.65,-168.98,
0.18,1.13,0.02,69.86,-171.36,
0.23,1.07,-0.01,61.25,-168.07,
0.20,1.01,0.01,53.27,-161.84,
0.13,0.99,0.03,46.90,-153.30,
0.06,0.99,0.05,40.60,-150.64,
0.02,0.98,0.06,34.79,-151.76,
0.01,0.96,0.05,33.95,-154.91,
0.03,0.95,0.07,33.18,-154.98,
0.04,0.92,0.04,34.02,-155.19,
0.08,0.91,0.03,34.79,-151.06,
0.07,0.92,0.02,31.78,-149.45,
0.08,0.90,0.00,32.62,-147.70,
0.06,0.92,0.00,30.73,-149.59,
0.07,0.91,0.04,30.59,-150.92,
0.09,0.91,0.06,29.47,-149.17,
0.08,0.93,0.07,28.21,-151.34,
0.10,0.93,0.08,24.50,-149.10,
0.13,0.92,0.10,21.28,-147.21,
0.16,0.91,0.10,18.13,-143.78,
0.19,0.91,0.10,15.26,-137.06,
0.22,0.92,0.07,15.05,-130.06,
0.23,0.95,0.06,14.84,-124.25,
0.23,0.95,0.07,13.30,-116.97,
0.22,0.94,0.09,11.69,-111.51,
0.18,0.94,0.11,11.90,-110.18,
0.18,0.91,0.15,12.81,-108.64,
0.19,0.89,0.15,13.93,-104.02,
0.20,0.91,0.17,14.70,-99.40,
0.20,0.93,0.16,14.84,-95.55,
0.21,0.95,0.14,12.39,-90.58,
0.20,0.98,0.13,10.43,-86.73,
0.18,1.00,0.13,9.17,-84.35,
0.14,1.03,0.11,6.86,-82.39,
0.09,1.03,0.12,4.90,-80.43,
0.08,1.05,0.14,4.62,-74.62,
0.09,1.05,0.15,3.92,-70.84,
0.08,1.07,0.18,1.75,-67.90,
0.10,1.07,0.22,0.00,-63.35,
0.12,1.06,0.23,-2.38,-60.27,
0.12,1.05,0.22,-7.00,-58.38,
0.12,1.03,0.23,-13.72,-56.21,
0.13,1.02,0.22,-22.68,-54.32,
0.12,1.01,0.21,-34.37,-54.602.52,
0.11,1.02,0.23,-46.97,-56.355.46,
0.10,1.05,0.22,-63.00,-57.478.89,
0.07,1.08,0.19,-76.09,-56.9815.05,
0.00,1.14,0.18,-91.49,-56.0724.85,
-0.11,1.18,0.19,-108.43,-57.1240.60,
-0.18,1.21,0.21,-123.41,-60.6954.04,
-0.28,1.20,0.22,-135.66,-68.6066.64,
-0.35,1.16,0.23,-147.70,-77.2176.16,
-0.40,1.10,0.32,-151.83,-84.2180.78,
-0.41,1.08,0.46,-155.82,-90.0980.85,
-0.45,1.12,0.44,-151.83,-94.5773.71,
-0.50,1.26,0.40,-143.85,-91.9161.25,
-0.42,1.30,0.29,-139.30,-87.8546.69,
-0.28,1.27,0.23,-135.10,-80.3633.95,
-0.13,1.20,0.25,-126.49,-68.6721.07,
-0.02,1.19,0.30,-122.71,-54.8810.15,
0.08,1.05,0.41,-121.80,-36.19,
0.22,0.88,0.48,-113.33,-29.12,
0.29,0.87,0.47,-93.73,-22.47,
0.26,0.92,0.50,-81.48,-15.75,
0.21,1.00,0.56,-77.35,-23.6611.41,
0.12,1.00,0.61,-81.41,-29.9625.83,
0.01,0.95,0.63,-84.42,-28.2132.62,
-0.06,0.88,0.57,-83.37,-20.8635.56,
-0.09,0.78,0.49,-78.19,-17.0834.51,
-0.12,0.68,0.46,-75.11,-15.6126.88,
-0.03,0.57,0.46,-63.98,-12.6016.94,
0.04,0.53,0.47,-58.03,-13.0911.62,
0.12,0.53,0.46,-44.45,-15.1212.53,
0.21,0.42,0.42,-27.37,-16.6615.61,
0.20,0.40,0.39,-13.02,-16.9417.78,
0.18,0.32,0.35,-1.96,-12.3915.82,
0.14,0.28,0.32,6.51,-7.5610.71,
0.11,0.29,0.32,14.28,-4.135.11,
0.08,0.33,0.35,21.35,-3.29,
0.05,0.37,0.38,26.95,1.68-7.77,
0.04,0.40,0.40,32.97,5.95-11.90,
0.02,0.46,0.44,38.64,9.38-13.44,
0.04,0.51,0.47,40.18,12.74-14.77,
0.06,0.53,0.46,46.55,14.35-15.68,
0.09,0.58,0.47,51.31,13.16-17.29,
0.09,0.59,0.48,53.90,9.45-19.46,
0.12,0.59,0.48,58.17,5.32-20.65,
0.14,0.62,0.49,61.32,2.45-21.42,
0.14,0.64,0.49,65.73,0.77-22.26,
0.13,0.66,0.49,69.44,0.21-23.03,
0.12,0.69,0.49,71.19,0.21-24.15,
0.10,0.72,0.51,73.22,-27.37,
0.09,0.75,0.53,76.44,-29.26,
0.08,0.79,0.55,77.91,0.28-30.73,
0.09,0.85,0.59,77.42,1.68-30.87,
0.12,0.91,0.63,75.74,2.80-28.91,
0.13,0.96,0.65,69.44,3.43-24.92,
0.11,1.01,0.66,60.69,5.18-17.50,
0.07,1.14,0.70,47.74,6.58-6.37,
0.05,1.28,0.76,31.50,8.821.33,
0.01,1.47,0.79,9.24,6.308.82,
0.03,1.58,0.86,-23.66,0.2116.52,
0.07,1.46,0.90,-47.53,-3.6421.91,
0.10,1.22,0.83,-66.22,-6.9325.06,
0.15,0.81,0.79,-72.66,-7.6327.09,
0.16,0.71,0.73,-65.38,-5.8826.95,
0.10,0.67,0.61,-54.46,-0.9125.55,
0.00,0.64,0.47,-37.52,1.4021.00,
-0.15,0.65,0.37,-19.95,1.8916.31,
-0.32,0.74,0.33,-1.47,1.4012.39,
-0.43,0.84,0.25,15.19,-0.848.12,
-0.48,0.97,0.19,24.99,-6.093.92,
-0.46,1.05,0.19,27.23,-18.201.75,
-0.35,1.10,0.23,21.98,-30.103.50,
-0.21,1.07,0.37,23.17,-36.126.23,
-0.07,1.04,0.40,28.63,-37.037.42,
0.06,1.03,0.32,32.48,-30.806.23,
0.10,0.89,0.27,30.52,-22.54,
0.08,0.91,0.17,32.20,-21.00,
0.00,0.91,0.01,37.87,0.21-20.02,
-0.09,0.97,-0.04,39.76,5.04-28.07,
-0.17,1.01,0.00,34.79,8.05-32.20,
-0.18,1.04,0.09,29.19,9.52-32.62,
-0.11,1.08,0.16,30.10,5.04-29.33,
-0.04,1.09,0.25,34.72,-28.14,
0.02,1.06,0.30,42.28,-40.74,
0.18,1.04,0.39,49.42,-43.89,
0.25,1.00,0.40,54.67,-42.35,
0.23,0.95,0.32,60.83,-41.72,
0.19,0.95,0.30,62.65,-39.900.70,
0.18,0.93,0.29,61.74,-39.553.50,
0.17,0.95,0.23,57.40,-40.044.34,
0.15,0.94,0.19,53.55,-40.953.15,
0.16,0.90,0.19,50.33,-37.240.35,
0.14,0.91,0.18,43.05,-35.28,
0.13,0.87,0.20,37.24,-31.85,
0.11,0.86,0.23,32.20,-27.30,
0.11,0.85,0.27,27.86,-22.54,
0.11,0.84,0.29,25.27,-16.24,
0.09,0.83,0.29,23.24,3.50-15.40,
0.07,0.84,0.27,21.28,6.30-13.02,
0.07,0.85,0.26,19.39,7.35-10.50,
0.08,0.86,0.22,19.11,6.58-7.84,
0.06,1.00,0.18,19.18,-5.81,
0.07,0.88,0.21,17.15,-11.41,
0.08,0.89,0.23,13.44,-19.81,
0.07,0.90,0.25,11.69,-27.650.98,
0.06,0.90,0.26,6.86,-33.042.38,
0.03,0.87,0.26,-1.40,-32.764.06,
0.05,0.83,0.24,-12.11,-28.704.62,
0.09,0.76,0.29,-21.63,-20.022.38,
0.24,0.74,0.33,-31.01,-9.03,
0.18,0.73,0.35,-36.33,0.42-4.62,
0.22,0.73,0.35,-34.51,7.84-8.47,
0.23,0.72,0.32,-28.35,13.44-11.62,
0.23,0.71,0.29,-23.10,17.08-13.72,
0.23,0.69,0.21,-16.94,17.71-15.05,
0.22,0.67,0.16,-11.90,13.72-13.72,
0.20,0.65,0.13,-14.98,7.21-11.48,
0.16,0.63,0.18,-20.23,1.12-9.59,
0.15,0.66,0.22,-26.74,-8.40,
0.13,0.73,0.27,-28.91,2.24-7.77,
0.10,0.82,0.30,-29.19,4.76-9.73,
0.11,0.89,0.27,-26.25,8.89-12.67,
0.12,0.92,0.19,-24.08,13.72-14.49,
0.09,0.89,0.12,-23.80,20.44-16.10,
0.01,0.81,0.11,-27.58,21.00-15.96,
-0.03,0.74,0.15,-33.39,13.65-14.77,
-0.02,0.70,0.27,-35.98,1.89-13.30,
0.03,0.73,0.31,-34.30,-20.72,
0.09,0.79,0.36,-30.03,-28.56,
0.15,0.81,0.36,-24.50,-28.84,
0.17,0.76,0.34,-21.14,-24.22,
0.19,0.72,0.27,-17.43,5.25-22.54,
0.19,0.71,0.20,-17.15,11.90-21.63,
0.16,0.73,0.19,-22.89,14.28-18.34,
0.12,0.79,0.20,-34.65,12.32-13.16,
0.06,0.89,0.24,-52.99,0.91-7.49,
0.01,1.00,0.34,-72.45,-13.863.36,
-0.02,1.13,0.45,-90.23,-26.8817.85,
0.01,1.33,0.52,-101.43,-31.7133.25,
0.00,1.51,0.59,-119.91,-31.7848.37,
-0.06,1.55,0.68,-141.89,-30.9466.85,
-0.17,1.57,0.71,-162.61,-29.5476.79,
-0.27,1.53,0.69,-167.93,-30.8782.04,
-0.26,1.49,0.73,-170.66,-30.3881.69,
-0.27,1.43,0.71,-167.02,-27.7275.18,
-0.24,1.40,0.69,-166.81,-22.5464.40,
-0.22,1.29,0.70,-163.87,-14.2152.01,
-0.22,1.11,0.81,-152.53,-4.7640.25,
-0.24,1.04,0.85,-138.67,-3.9231.92,
-0.14,1.05,0.79,-123.62,-7.2823.87,
-0.09,1.07,0.68,-104.30,-11.6918.76,
-0.05,1.06,0.63,-88.76,-16.2414.14,
0.00,1.02,0.70,-74.55,-19.4610.57,
0.03,0.96,0.76,-60.83,-23.035.04,
0.06,0.89,0.79,-48.51,-25.270.49,
0.08,0.85,0.77,-36.54,-24.08,
0.08,0.75,0.75,-23.87,-23.52,
0.05,0.67,0.72,-3.50,-25.97,
0.03,0.59,0.70,11.48,-29.12,
0.02,0.50,0.67,24.92,-30.52,
0.03,0.44,0.60,37.52,-31.50,
0.02,0.40,0.53,45.85,-31.85,
-0.01,0.34,0.45,52.22,-36.75,
0.00,0.32,0.41,59.99,-44.66,
0.01,0.34,0.38,70.28,-53.34,
0.04,0.32,0.35,79.66,-62.09,
0.06,0.31,0.36,87.15,-68.81,
0.08,0.27,0.37,93.94,-71.75,
0.09,0.29,0.38,99.05,-66.57,
0.11,0.31,0.40,99.96,1.19-62.02,
0.11,0.33,0.38,104.51,6.58-60.83,
0.08,0.34,0.34,109.69,7.98-57.61,
0.05,0.37,0.32,110.25,6.44-53.76,
-0.01,0.44,0.32,104.65,3.43-47.39,
-0.05,0.53,0.33,94.78,-43.33,
-0.02,0.57,0.33,88.55,-46.06,
0.00,0.57,0.32,87.85,-47.39,
-0.01,0.57,0.34,89.11,-46.97,
-0.01,0.58,0.38,87.22,-44.73,
0.01,0.62,0.39,82.95,-41.09,
0.05,0.59,0.39,79.24,-33.74,
0.06,0.56,0.36,76.65,-25.83,
0.06,0.53,0.32,78.68,-23.10,
0.08,0.55,0.33,80.64,-22.33,
0.05,0.58,0.49,82.60,-23.45,
0.03,0.64,0.44,83.16,-24.36,
0.04,0.72,0.45,79.45,-23.66,
0.05,0.81,0.46,70.14,-23.03,
0.04,0.86,0.51,60.62,-20.37,
0.03,0.88,0.57,49.00,-18.27,
0.01,0.89,0.57,37.03,-17.361.33,
-0.01,0.87,0.65,24.43,-21.074.83,
-0.01,0.90,0.71,18.69,-22.268.40,
-0.05,1.03,0.73,15.82,-17.1511.97,
-0.09,1.29,0.67,10.71,-8.7514.07,
-0.19,1.43,0.67,-10.78,-16.5921.07,
-0.18,1.36,0.50,-5.04,-36.1231.57,
0.03,1.48,-0.28,23.73,-5.9530.94,
-0.10,1.41,-0.52,23.59,22.5432.97,
0.06,1.48,0.07,7.07,21.1428.70,
0.19,1.31,0.30,1.33,6.7927.65,
0.38,1.36,0.44,-4.27,-25.9034.09,
0.47,1.53,0.70,-25.20,-47.3942.77,
0.59,1.69,0.94,-47.25,-44.7352.29,
0.68,1.75,0.81,-64.19,-17.0152.22,
0.43,1.62,0.64,-76.51,16.8748.37,
0.26,1.42,0.34,-69.09,35.3540.67,
0.21,1.13,0.25,-35.42,50.2636.19,
0.12,1.00,0.24,-1.05,47.3230.52,
0.00,1.04,0.24,26.32,38.5721.98,
-0.05,1.11,0.24,50.75,29.059.45,
-0.10,1.19,0.16,71.40,16.52-1.82,
-0.09,1.23,0.13,80.50,9.52-11.83,
-0.05,1.23,0.18,76.02,8.19-20.51,
0.06,1.20,0.22,68.60,9.17-25.48,
0.12,1.17,0.28,60.69,10.36-27.58,
0.16,1.12,0.29,53.97,11.48-27.44,
0.16,1.07,0.24,50.40,10.29-26.53,
0.11,0.99,0.20,48.86,5.88-26.46,
0.06,0.91,0.18,47.32,0.98-26.53,
0.02,0.83,0.19,45.57,-31.43,
-0.03,0.79,0.21,44.17,-40.32,
-0.06,0.76,0.23,42.63,-49.14,
-0.05,0.76,0.24,39.06,-53.69,
-0.02,0.76,0.23,32.97,-50.54,
0.00,0.76,0.20,28.63,-44.94,
0.04,0.75,0.20,22.54,-40.74,
0.08,0.73,0.18,16.10,-38.64,
0.13,0.71,0.21,9.24,-37.38,
0.17,0.70,0.22,4.06,-32.41,
0.20,0.73,0.20,0.14,-27.09,
0.20,0.76,0.20,-4.83,-22.89,
0.20,0.78,0.23,-11.90,-21.91,
0.19,0.79,0.26,-23.94,-22.19,
0.21,0.77,0.29,-30.31,-19.04,
0.24,0.73,0.34,-31.85,-13.09,
0.26,0.71,0.37,-28.70,6.23-10.29,
0.24,0.73,0.38,-29.61,20.37-12.81,
0.21,0.74,0.33,-29.40,28.56-16.80,
0.18,0.78,0.22,-27.72,32.06-20.79,
0.16,0.82,0.10,-31.50,33.60-23.10,
0.13,0.85,0.03,-38.36,29.12-22.26,
0.12,0.84,0.07,-44.31,19.04-17.22,
0.10,0.79,0.16,-48.37,9.31-11.13,
0.09,0.74,0.23,-50.61,0.00-3.64,
0.08,0.69,0.29,-51.52,-3.782.45,
0.08,0.68,0.34,-44.52,-3.013.99,
0.06,0.71,0.32,-40.81,-1.753.99,
0.04,0.73,0.29,-38.43,0.003.15,
0.02,0.67,0.30,-33.74,5.320.63,
0.01,0.63,0.30,-30.10,11.20-1.33,
0.02,0.61,0.28,-28.07,13.44-4.62,
0.06,0.61,0.24,-29.05,12.88-7.00,
0.09,0.68,0.21,-35.49,9.52-7.70,
0.09,0.74,0.20,-42.35,3.29-6.51,
0.03,0.88,0.29,-48.44,-5.18,
0.02,1.16,0.36,-54.32,-7.286.02,
0.03,1.38,0.38,-62.58,-14.9816.59,
-0.03,1.49,0.45,-85.47,-23.1031.64,
-0.08,1.54,0.51,-109.48,-34.5148.51,
-0.08,1.44,0.66,-126.63,-43.6163.14,
-0.08,1.45,0.75,-142.80,-49.4272.73,
-0.08,1.43,0.81,-152.46,-51.9474.48,
-0.08,1.43,0.81,-160.72,-52.0873.29,
-0.07,1.41,0.83,-164.64,-44.0367.69,
-0.13,1.35,0.88,-165.41,-29.5460.90,
-0.16,1.29,0.87,-161.56,-16.7352.64,
-0.09,1.24,0.84,-152.32,-7.5643.12,
-0.02,1.19,0.86,-140.42,0.2131.57,
0.06,1.09,0.86,-120.82,5.1824.29,
0.11,1.03,0.87,-103.53,1.6817.64,
0.21,0.98,0.84,-87.08,0.2110.92,
0.28,0.92,0.77,-58.94,0.848.61,
0.25,0.87,0.74,-38.92,2.459.10,
0.19,0.85,0.77,-24.85,4.2711.55,
0.12,0.80,0.78,-12.18,5.8111.90,
0.06,0.76,0.76,-3.29,9.668.12,
0.01,0.67,0.72,5.39,12.883.29,
0.00,0.58,0.66,19.46,16.10-1.33,
-0.01,0.52,0.60,31.50,17.78-5.46,
-0.01,0.46,0.52,42.91,18.97-8.68,
-0.01,0.39,0.44,54.04,19.67-12.25,
-0.03,0.31,0.39,59.08,17.43-16.31,
-0.06,0.24,0.35,66.57,15.19-22.05,
-0.05,0.24,0.33,75.81,13.58-27.51,
-0.02,0.20,0.32,88.41,12.39-32.13,
-0.04,0.23,0.30,95.97,10.29-37.38,
-0.03,0.24,0.30,98.21,10.01-42.14,
0.00,0.26,0.28,102.20,12.81-45.78,
0.00,0.27,0.28,101.36,15.19-47.74,
0.00,0.27,0.26,103.39,19.04-47.25,
-0.02,0.31,0.25,105.42,21.21-44.52,
-0.03,0.34,0.22,105.42,22.40-41.09,
-0.05,0.38,0.19,104.02,21.98-38.15,
-0.09,0.43,0.20,101.64,19.04-34.86,
-0.11,0.50,0.24,101.57,12.60-31.71,
-0.07,0.54,0.29,101.92,2.10-29.05,
-0.04,0.56,0.33,101.36,-30.94,
-0.03,0.63,0.36,102.90,-34.16,
0.03,0.68,0.42,101.85,-31.43,
0.08,0.67,0.45,101.01,3.71-26.81,
0.09,0.69,0.49,96.53,7.28-20.86,
0.07,0.69,0.47,95.69,3.85-15.05,
0.10,0.75,0.44,91.77,0.56-10.08,
0.08,0.81,0.35,82.11,-9.59,
0.07,0.87,0.30,66.36,-12.534.06,
0.11,0.87,0.35,53.97,-15.3311.27,
0.10,0.89,0.41,44.03,-14.6316.17,
0.06,0.85,0.46,34.44,-13.3720.02,
-0.03,0.84,0.49,27.44,-16.3823.66,
-0.08,0.90,0.60,19.81,-20.0227.44,
-0.15,1.04,0.71,23.38,-17.7131.22,
-0.17,1.29,0.66,24.92,-12.3936.47,
-0.25,1.53,0.57,14.07,-11.6939.76,
-0.28,1.67,0.42,-3.29,-20.7942.84,
-0.24,1.62,0.17,-18.20,-34.2344.17,
0.04,1.59,-0.23,-9.31,3.2237.52,
-0.02,1.35,-0.12,-26.18,19.3931.64,
0.11,1.09,0.10,-26.25,17.4328.28,
0.21,1.08,0.30,-28.42,1.4729.40,
0.38,1.17,0.53,-36.75,-13.2334.72,
0.42,1.23,0.76,-35.98,-15.6839.41,
0.50,1.40,0.72,-29.26,5.6739.97,
0.40,1.50,0.68,-28.63,25.6237.87,
0.25,1.54,0.56,-22.26,32.6234.30,
0.15,1.58,0.28,-16.31,30.0328.14,
0.08,1.51,0.26,-6.02,26.8820.02,
0.06,1.30,0.19,12.04,26.1810.99,
0.05,1.20,0.16,28.70,24.154.76,
0.07,1.11,0.18,42.28,20.44-1.26,
0.09,1.09,0.16,58.24,19.74-7.35,
0.10,1.08,0.15,64.68,20.86-12.67,
0.10,1.10,0.18,65.10,25.76-18.34,
0.09,1.09,0.19,62.79,30.24-22.96,
0.06,1.05,0.19,58.87,30.73-24.92,
-0.11,1.00,0.18,54.81,23.87-24.36,
-0.04,0.93,0.16,51.66,13.58-21.70,
-0.07,0.88,0.16,49.35,1.96-20.09,
-0.10,0.84,0.19,48.44,-28.00,
-0.11,0.81,0.24,46.13,-36.75,
-0.11,0.78,0.24,41.79,-44.87,
-0.08,0.75,0.24,35.84,-49.56,
-0.05,0.73,0.26,27.30,-51.24,
-0.02,0.73,0.27,14.42,-50.26,
0.02,0.72,0.29,5.18,-48.86,
0.07,0.71,0.29,-2.87,-44.66,
0.13,0.70,0.27,-8.82,-40.25,
0.16,0.71,0.23,-15.05,-34.86,
0.20,0.70,0.20,-20.58,-31.22,
0.24,0.68,0.20,-24.43,-28.77,
0.27,0.65,0.18,-27.58,-26.32,
0.28,0.63,0.19,-28.84,-22.19,
0.28,0.63,0.23,-24.64,-19.74,
0.25,0.68,0.28,-26.32,-20.65,
0.22,0.76,0.30,-28.70,-19.67,
0.20,0.81,0.22,-32.13,-14.91,
0.17,0.79,0.21,-32.34,2.94-9.45,
0.13,0.76,0.17,-34.02,8.61-8.82,
0.11,0.71,0.17,-35.91,14.56-7.56,
0.10,0.66,0.18,-38.71,16.31-6.72,
0.13,0.61,0.20,-38.64,14.56-6.79,
0.14,0.62,0.19,-39.06,10.36-6.44,
0.15,0.63,0.19,-40.46,8.40-6.02,
0.09,0.66,0.19,-49.28,6.86-5.67,
0.05,0.65,0.18,-59.57,4.97-5.46,
0.02,0.70,0.20,-73.08,3.01-3.71,
-0.08,0.75,0.26,-86.80,2.386.86,
-0.19,0.94,0.39,-95.76,5.3218.06,
-0.22,1.25,0.53,-100.38,8.8926.53,
-0.27,1.54,0.54,-110.11,3.5738.29,
-0.35,1.70,0.56,-130.90,-8.3353.34,
-0.32,1.78,0.62,-148.89,-21.4963.91,
-0.27,1.72,0.70,-163.80,-39.4867.13,
-0.19,1.49,0.78,-171.99,-51.8063.98,
-0.15,1.37,0.79,-169.47,-51.5958.31,
-0.13,1.36,0.77,-166.60,-42.1450.26,
-0.15,1.35,0.85,-176.54,-28.9842.91,
-0.25,1.21,0.90,-176.12,-25.2038.71,
-0.20,1.19,0.90,-150.43,-29.3335.28,
-0.08,1.22,0.89,-125.02,-28.7731.78,
-0.08,1.15,0.82,-105.28,-30.6627.16,
-0.03,1.06,0.76,-88.13,-32.2020.58,
0.02,0.98,0.74,-75.32,-33.8813.72,
0.11,0.85,0.76,-53.76,-31.997.91,
0.14,0.80,0.80,-43.75,-30.524.55,
0.16,0.75,0.80,-29.40,-26.320.77,
0.13,0.69,0.77,-13.93,-25.27,
0.10,0.65,0.73,-4.69,-24.43,
0.08,0.59,0.64,6.02,-24.36,
0.12,0.53,0.57,15.19,-22.33,
0.12,0.44,0.51,26.46,-20.65,
0.09,0.32,0.45,38.99,-18.41,
0.08,0.25,0.40,50.05,1.96-22.12,
0.08,0.17,0.37,60.55,4.55-25.83,
0.08,0.14,0.36,69.86,4.41-30.73,
0.06,0.15,0.34,78.61,3.43-35.84,
0.05,0.17,0.36,86.73,2.59-40.53,
0.06,0.14,0.38,96.53,3.36-43.40,
0.05,0.14,0.39,102.69,7.91-47.60,
0.06,0.18,0.39,109.83,12.46-50.82,
0.09,0.26,0.38,112.42,16.45-51.66,
0.13,0.34,0.34,115.64,19.11-46.90,
0.15,0.35,0.29,121.80,19.32-38.92,
0.12,0.34,0.22,123.55,17.29-36.12,
0.08,0.44,0.23,119.00,16.03-33.25,
0.09,0.49,0.27,112.77,15.33-27.65,
0.08,0.52,0.30,109.41,12.11-20.93,
0.05,0.61,0.33,111.23,7.35-14.63,
0.04,0.69,0.44,117.18,7.91-11.20,
0.05,0.82,0.55,118.86,13.72-7.98,
0.06,0.86,0.58,117.25,20.72-3.85,
0.02,0.90,0.54,118.30,25.481.40,
0.00,0.94,0.51,115.43,27.726.58,
-0.04,0.96,0.49,105.98,25.6910.22,
-0.07,0.97,0.47,93.66,22.8212.39,
-0.08,0.89,0.42,79.80,15.9613.02,
-0.10,0.79,0.32,65.45,4.6912.46,
-0.12,0.72,0.28,47.88,-14.0012.25,
-0.07,0.67,0.32,37.24,-25.1312.25,
-0.06,0.71,0.41,19.88,-31.1511.97,
-0.16,0.86,0.56,9.45,-23.1713.16,
-0.29,1.16,0.83,4.27,-10.6419.46,
-0.46,1.68,0.92,-22.82,-11.4130.87,
-0.64,1.57,0.79,-46.69,-56.6341.51,
-0.22,1.70,-0.40,-11.34,-13.5834.44,
-0.37,1.40,-0.85,-22.82,-0.8430.03,
0.13,1.06,-0.09,-36.33,-14.7731.64,
0.20,0.96,0.17,-30.45,-21.0728.91,
0.50,1.05,0.23,-22.33,-34.5129.61,
0.54,1.24,0.33,-24.57,-36.8229.12,
0.54,1.25,0.60,-37.73,-29.2638.43,
0.50,1.36,0.86,-39.76,10.5746.90,
0.36,1.59,0.70,-27.65,47.1842.98,
0.16,1.77,0.47,-24.08,58.1738.36,
0.05,1.82,0.32,-18.41,50.8230.66,
-0.03,1.73,0.22,-13.58,30.4521.00,
-0.06,1.39,0.16,1.12,15.6111.48,
-0.01,1.18,0.18,22.05,3.015.04,
0.09,1.01,0.27,38.22,-5.460.70,
0.21,1.00,0.37,57.54,-7.07,
0.29,1.06,0.37,71.33,3.92-7.70,
0.29,1.16,0.33,79.38,9.03-10.22,
0.23,1.23,0.31,79.73,13.37-14.77,
0.16,1.19,0.27,74.97,20.44-18.76,
0.07,1.09,0.19,67.48,26.25-21.35,
0.00,0.99,0.13,57.26,25.48-21.49,
-0.06,0.88,0.09,51.87,18.76-20.16,
-0.10,0.79,0.12,51.10,9.17-20.16,
-0.12,0.74,0.19,50.68,0.07-21.70,
-0.11,0.77,0.22,48.16,-29.61,
-0.07,0.81,0.24,42.63,-36.96,
-0.07,0.84,0.29,33.74,-43.05,
-0.06,0.85,0.33,21.77,-47.95,
-0.02,0.80,0.34,12.53,-50.61,
0.04,0.73,0.31,5.32,-51.45,
0.09,0.64,0.27,-1.33,-47.88,
0.15,0.59,0.24,-9.03,-39.13,
0.21,0.54,0.18,-15.19,-26.74,
0.23,0.53,0.14,-23.52,-21.63,
0.24,0.55,0.12,-32.41,0.07-18.76,
0.27,0.56,0.12,-41.51,0.49-16.45,
0.30,0.56,0.08,-46.27,-15.12,
0.32,0.59,0.18,-47.04,-16.10,
0.33,0.59,0.33,-50.19,-17.78,
0.32,0.61,0.41,-48.09,-16.10,
0.26,0.69,0.40,-39.20,-14.42,
0.27,0.75,0.26,-27.79,1.05-4.41,
0.22,0.81,0.25,-21.56,14.91-3.01,
0.18,0.79,0.21,-20.58,29.75-2.31,
0.12,0.75,0.16,-21.35,39.20-1.40,
0.07,0.69,0.14,-24.01,42.21-0.35,
0.05,0.64,0.18,-26.67,38.711.61,
0.04,0.64,0.27,-29.26,29.754.97,
0.02,0.69,0.37,-34.23,20.308.47,
0.01,0.77,0.40,-44.03,14.3511.06,
0.01,0.86,0.38,-59.50,11.2713.09,
0.01,0.95,0.32,-83.79,8.6117.57,
-0.07,0.99,0.27,-110.39,10.5024.22,
-0.18,1.10,0.35,-135.45,15.6131.08,
-0.23,1.32,0.61,-155.89,17.1536.47,
-0.24,1.56,0.63,-176.96,13.3043.33,
-0.33,1.81,0.66,-197.12,4.7655.37,
-0.36,1.79,0.71,-215.04,-5.5362.23,
-0.29,1.67,0.81,-221.34,-19.4666.57,
-0.18,1.57,0.82,-219.80,-23.8065.87,
-0.15,1.49,0.68,-211.61,-22.0564.61,
-0.07,1.39,0.66,-202.16,-11.0655.02,
-0.13,1.31,0.70,-193.69,-3.4343.89,
-0.17,1.08,0.77,-177.80,-1.7538.78,
-0.09,1.04,0.82,-158.27,5.3931.36,
0.01,1.02,0.79,-142.38,6.0924.43,
0.08,0.97,0.75,-117.18,4.4819.32,
0.08,0.89,0.70,-97.79,-5.4617.64,
0.08,0.78,0.74,-76.65,-15.1215.89,
0.09,0.70,0.80,-58.03,-19.8812.88,
0.10,0.60,0.83,-43.96,-0.219.73,
0.08,0.54,0.82,-28.49,-10.364.97,
0.06,0.46,0.79,-6.09,-3.780.91,
0.01,0.41,0.73,9.45,-3.85,
-0.02,0.35,0.66,22.54,0.21-5.74,
-0.03,0.29,0.58,35.42,-10.15,
-0.02,0.26,0.49,49.14,-17.71,
-0.01,0.19,0.42,65.66,-27.30,
0.02,0.19,0.37,79.66,-40.18,
0.07,0.17,0.37,91.21,-52.64,
0.14,0.17,0.37,98.56,-63.00,
0.20,0.17,0.40,104.79,-70.35,
0.23,0.17,0.44,113.75,-73.99,
0.25,0.19,0.48,122.01,-72.66,
0.30,0.27,0.47,125.65,-65.31,
0.32,0.34,0.43,126.07,1.40-59.85,
0.33,0.42,0.38,131.11,6.65-52.85,
0.30,0.51,0.36,130.90,9.45-42.56,
0.22,0.43,0.39,135.31,15.19-36.40,
0.11,0.48,0.40,137.27,18.27-35.14,
0.05,0.65,0.41,129.92,19.74-31.43,
0.00,0.70,0.43,119.70,15.12-26.39,
-0.02,0.77,0.47,117.18,10.15-24.50,
0.01,0.75,0.54,120.68,8.89-24.36,
0.03,0.70,0.57,118.93,10.01-21.14,
0.04,0.68,0.57,114.87,11.69-11.90,
0.03,0.63,0.55,114.38,11.48-6.86,
-0.01,0.69,0.53,114.45,12.25-4.41,
0.00,0.78,0.51,117.25,15.19-4.41,
0.03,0.87,0.49,115.64,17.22-4.55,
-0.02,0.94,0.45,114.45,13.09-5.32,
-0.05,1.04,0.46,104.30,6.51-5.60,
-0.09,1.10,0.48,85.82,-6.16,
-0.14,1.09,0.55,59.99,-13.72,
-0.22,1.03,0.66,37.66,-13.51,
-0.25,1.00,0.71,11.41,-9.24,
-0.30,0.99,0.76,-8.19,-6.51,
-0.36,1.05,0.78,-21.21,-0.072.94,
-0.36,1.36,0.69,-34.37,3.299.45,
-0.33,1.49,0.41,-32.06,2.3813.79,
-0.17,1.60,0.00,-20.09,2.3112.88,
-0.06,1.64,-0.28,-22.33,-1.6811.34,
0.00,1.57,-0.22,-46.69,-16.4512.04,
0.11,1.25,0.12,-59.43,-16.8715.54,
0.16,0.96,0.21,-66.78,-14.9821.84,
0.37,0.86,-0.07,-37.24,-0.5629.47,
0.29,0.87,0.12,-17.50,3.1543.54,
0.33,0.96,0.65,-4.83,11.4853.27,
0.38,1.19,0.77,-1.05,21.4959.15,
0.40,1.33,0.54,4.48,29.3361.25,
0.26,1.38,0.31,9.94,32.4157.47,
0.12,1.44,0.25,14.84,30.6648.72,
-0.04,1.49,0.22,12.81,18.1339.13,
-0.13,1.40,0.17,15.61,-0.9126.46,
-0.08,1.27,0.23,28.14,-6.5115.12,
-0.03,1.17,0.33,45.57,-4.064.41,
-0.02,1.11,0.39,53.97,1.12-7.21,
0.02,1.08,0.36,56.35,5.25-15.61,
0.02,1.07,0.33,54.39,4.83-22.05,
0.03,1.03,0.30,48.37,0.77-25.20,
0.03,0.98,0.29,41.44,-29.47,
0.04,0.93,0.28,32.83,-31.22,
0.05,0.89,0.26,26.74,-32.20,
0.06,0.83,0.20,24.50,-32.27,
0.06,0.79,0.19,24.01,-31.36,
0.09,0.76,0.21,23.59,-30.80,
0.12,0.75,0.22,21.28,-29.89,
0.14,0.72,0.25,19.04,-28.91,
0.15,0.68,0.28,18.83,-28.42,
0.13,0.67,0.32,17.15,-27.72,
0.13,0.69,0.34,14.14,-26.18,
0.13,0.76,0.31,7.21,-25.13,
0.12,0.83,0.33,-6.58,-25.90,
0.13,0.85,0.34,-20.79,-25.27,
0.15,0.85,0.30,-27.37,-20.72,
0.16,0.82,0.29,-25.69,0.56-17.08,
0.16,0.78,0.26,-25.06,4.34-17.71,
0.14,0.73,0.18,-25.97,3.78-18.69,
0.14,0.64,0.12,-27.23,0.35-20.09,
0.11,0.57,0.12,-25.90,-30.52,
0.06,0.54,0.21,-26.81,-42.28,
0.05,0.56,0.28,-28.63,-52.08,
0.03,0.65,0.30,-31.36,-58.52,
0.06,0.72,0.33,-30.38,-59.29,
0.06,0.81,0.31,-24.22,-56.35,
0.07,0.85,0.33,-27.09,-50.61,
0.10,0.85,0.28,-30.45,-40.11,
0.14,0.79,0.25,-33.60,-33.88,
0.22,0.75,0.23,-33.32,-28.56,
0.28,0.70,0.17,-31.64,-22.96,
0.30,0.67,0.14,-30.31,2.59-18.55,
0.30,0.64,0.17,-31.57,9.31-15.75,
0.27,0.65,0.20,-33.60,17.08-11.34,
0.17,0.79,0.25,-38.64,22.12-4.41,
0.07,1.04,0.35,-46.62,28.915.04,
-0.04,1.38,0.62,-56.21,31.8516.94,
-0.17,1.67,0.60,-70.63,30.0332.27,
-0.26,1.86,0.62,-93.17,18.2054.74,
-0.34,1.83,0.66,-117.04,-4.2069.79,
-0.29,1.62,0.65,-132.23,-31.1577.84,
-0.32,1.47,0.64,-145.74,-50.3379.17,
-0.29,1.33,0.69,-152.39,-65.9476.65,
-0.26,1.29,0.76,-152.74,-77.0772.10,
-0.20,1.30,0.87,-150.15,-76.7263.84,
-0.16,1.27,0.92,-144.62,-64.4058.10,
-0.08,1.19,0.92,-133.70,-44.1752.36,
0.05,1.15,0.87,-121.24,-25.9044.52,
0.11,1.08,0.78,-98.07,-8.8938.43,
0.16,0.99,0.67,-82.88,6.7234.30,
0.17,0.90,0.59,-70.00,17.9930.10,
0.18,0.81,0.56,-59.85,26.2525.69,
0.17,0.74,0.52,-50.12,26.1124.29,
0.09,0.70,0.51,-40.18,16.5222.26,
0.04,0.63,0.52,-28.77,8.6820.02,
-0.03,0.62,0.51,-13.37,3.2915.82,
0.00,0.54,0.50,-4.55,2.9411.55,
0.00,0.49,0.48,5.25,6.795.18,
0.00,0.40,0.44,16.31,10.78-0.28,
-0.01,0.32,0.40,26.95,14.49-5.04,
-0.03,0.26,0.39,36.75,14.63-9.31,
-0.05,0.23,0.39,49.91,12.81-13.37,
-0.04,0.23,0.39,58.66,11.27-16.87,
-0.06,0.22,0.38,65.94,9.87-20.79,
-0.03,0.17,0.37,73.85,6.65-24.71,
-0.02,0.18,0.38,78.89,4.69-27.51,
-0.02,0.19,0.39,82.53,4.48-28.84,
0.00,0.21,0.40,88.48,6.44-29.89,
0.00,0.25,0.41,93.87,8.96-31.85,
0.01,0.29,0.39,96.53,12.18-33.25,
0.03,0.35,0.35,98.70,14.49-33.25,
0.04,0.43,0.32,101.29,16.52-31.50,
0.05,0.49,0.34,103.88,16.38-30.17,
0.07,0.56,0.38,110.11,15.96-28.91,
0.10,0.64,0.44,116.06,13.02-28.14,
0.14,0.73,0.48,121.45,9.73-28.28,
0.15,0.85,0.53,123.97,8.19-28.28,
0.14,0.94,0.55,121.59,7.77-26.81,
0.11,0.95,0.54,116.06,6.58-23.10,
0.08,0.95,0.52,106.26,4.83-17.85,
0.08,0.91,0.47,95.41,3.78-11.06,
0.11,0.83,0.41,93.80,1.82-3.71,
0.09,0.83,0.35,90.44,-2.522.52,
0.11,0.83,0.34,83.23,-6.797.84,
0.08,0.84,0.33,78.54,-14.7711.48,
0.04,0.85,0.32,75.25,-24.2913.79,
-0.05,0.86,0.35,70.14,-27.8617.15,
-0.13,0.84,0.46,56.98,-29.8920.16,
-0.14,0.84,0.52,47.67,-27.2321.35,
-0.11,0.86,0.76,33.11,-22.0522.33,
-0.07,1.02,0.81,18.48,-7.2821.84,
-0.03,1.33,0.70,6.58,7.2123.80,
-0.07,1.44,0.55,-16.38,-2.7326.74,
-0.07,1.35,0.51,-49.56,-29.8935.91,
0.27,1.29,-0.26,-12.74,6.2339.76,
-0.05,1.22,-0.67,0.21,42.5638.71,
0.13,1.15,0.21,-8.19,33.8145.15,
0.18,1.22,0.39,-6.79,19.0449.42,
0.29,1.52,0.25,-14.63,-35.7053.06,
0.43,1.49,0.50,-32.20,-43.5457.40,
0.51,1.36,0.73,-44.31,-32.4862.79,
0.39,1.36,0.54,-41.09,-3.7156.14,
0.28,1.30,0.41,-32.76,21.8446.06,
0.13,1.45,0.33,-20.86,29.7536.40,
0.01,1.44,0.25,-19.18,29.8925.97,
-0.20,1.46,0.21,-20.51,22.6113.51,
-0.22,1.29,0.22,-21.84,15.120.35,
-0.10,1.16,0.19,-10.57,8.89-11.20,
0.01,1.10,0.23,5.18,4.83-20.72,
0.11,1.06,0.25,22.75,2.94-28.28,
0.21,1.08,0.29,37.38,4.55-33.32,
0.26,1.09,0.29,51.59,9.94-34.23,
0.25,1.08,0.29,61.88,19.67-32.83,
0.21,1.04,0.26,69.65,27.58-30.10,
0.14,1.03,0.21,71.68,28.63-26.46,
0.05,1.04,0.17,68.60,22.05-23.94,
0.02,1.04,0.18,61.53,12.60-21.42,
0.00,1.02,0.21,52.08,3.71-19.53,
0.01,0.98,0.23,44.31,-21.35,
0.03,0.93,0.23,38.29,-23.45,
0.05,0.87,0.23,32.20,0.63-24.92,
0.06,0.83,0.24,26.18,4.06-28.28,
0.05,0.79,0.24,20.65,6.58-31.36,
0.00,0.74,0.26,16.38,9.66-35.77,
-0.03,0.73,0.26,14.77,11.90-38.22,
-0.04,0.75,0.24,11.27,9.59-39.20,
-0.01,0.77,0.22,5.88,4.97-38.43,
0.05,0.77,0.21,1.47,0.14-35.49,
0.13,0.74,0.17,-2.94,-34.51,
0.21,0.71,0.17,-7.98,-30.94,
0.26,0.67,0.17,-14.35,-25.69,
0.33,0.65,0.18,-18.97,1.19-18.69,
0.34,0.65,0.19,-20.16,7.07-15.40,
0.32,0.68,0.23,-20.86,16.17-12.74,
0.28,0.71,0.26,-22.05,24.57-11.27,
0.22,0.74,0.20,-24.29,30.94-10.50,
0.15,0.73,0.16,-27.02,34.37-11.62,
0.07,0.72,0.19,-31.29,33.46-13.44,
0.01,0.74,0.20,-33.95,29.96-15.82,
0.01,0.79,0.18,-32.90,25.97-17.92,
0.03,0.85,0.19,-28.14,19.11-19.74,
0.07,0.89,0.25,-25.27,11.13-19.67,
0.13,0.88,0.25,-25.90,2.45-18.20,
0.18,0.80,0.21,-26.39,-19.39,
0.18,0.74,0.21,-29.26,-16.66,
0.18,0.69,0.20,-36.75,1.05-10.36,
0.18,0.65,0.18,-46.20,5.46-6.23,
0.17,0.64,0.20,-54.88,7.56-1.33,
0.17,0.67,0.26,-64.47,8.964.27,
0.14,0.81,0.30,-80.08,9.9413.51,
0.07,0.91,0.47,-95.34,9.6622.82,
0.05,1.09,0.65,-101.92,11.2734.02,
0.12,1.41,0.67,-101.36,13.5142.14,
0.02,1.60,0.55,-103.53,13.5150.47,
-0.05,1.55,0.54,-107.66,15.6862.16,
-0.20,1.44,0.51,-113.68,10.9289.46,
-0.28,1.33,0.51,-123.76,3.5074.55,
-0.35,1.23,0.58,-129.71,-9.8072.45,
-0.40,1.20,0.62,-133.00,-20.3769.16,
-0.33,1.23,0.72,-137.34,-25.0663.35,
-0.29,1.21,0.81,-135.94,-29.7559.15,
-0.26,1.20,0.95,-124.95,-29.8954.67,
-0.20,1.26,0.99,-107.03,-24.9949.14,
-0.12,1.38,0.97,-86.94,-21.2143.12,
-0.02,1.34,0.95,-71.82,-10.5038.22,
-0.02,1.26,0.89,-51.66,-0.9133.74,
0.03,1.15,0.81,-38.29,9.3129.89,
0.02,1.04,0.70,-28.70,17.1525.41,
0.00,0.92,0.66,-17.78,19.5321.00,
-0.03,0.84,0.63,-11.41,16.3818.34,
-0.07,0.81,0.59,-5.18,9.8016.38,
-0.09,0.76,0.55,2.59,4.9713.16,
-0.10,0.73,0.50,16.17,0.848.96,
-0.11,0.68,0.43,29.75,-3.361.82,
-0.10,0.59,0.38,44.24,-7.00,
-0.11,0.47,0.34,53.97,-17.57,
-0.08,0.40,0.34,58.17,-26.95,
-0.06,0.34,0.33,57.26,-33.67,
-0.03,0.24,0.35,54.81,-38.99,
0.00,0.20,0.32,59.43,-40.04,
0.01,0.20,0.26,64.40,1.89-42.28,
0.00,0.18,0.20,69.79,7.35-48.09,
0.01,0.19,0.16,70.63,13.23-53.83,
0.01,0.18,0.15,68.88,20.51-57.40,
0.00,0.17,0.13,68.18,25.41-61.11,
-0.01,0.14,0.12,70.42,28.14-61.67,
-0.02,0.16,0.13,76.30,27.86-59.15,
-0.04,0.17,0.19,85.68,24.36-54.25,
-0.03,0.35,0.25,94.99,19.67-46.90,
-0.06,0.35,0.27,100.45,12.60-43.12,
-0.04,0.50,0.29,104.58,2.10-39.69,
0.01,0.65,0.34,103.67,-38.22,
0.09,0.78,0.38,97.09,-34.51,
0.14,0.86,0.44,90.79,-27.65,
0.13,0.84,0.51,88.41,-18.69,
0.07,0.83,0.56,89.32,-7.351.61,
0.09,0.87,0.62,91.28,-5.4611.55,
0.09,0.91,0.59,89.25,-1.5417.92,
0.06,0.95,0.52,75.25,-0.4223.52,
0.07,0.91,0.45,62.86,-5.0429.47,
0.08,0.92,0.39,50.33,-9.4530.31,
0.10,0.91,0.39,34.86,-11.9027.30,
0.08,0.80,0.46,19.95,-14.4925.83,
0.00,0.76,0.52,9.80,-14.0727.65,
-0.13,0.79,0.66,1.33,-9.4532.62,
-0.17,1.02,0.58,2.66,0.1440.18,
-0.25,1.28,0.53,-3.22,4.4148.02,
-0.35,1.43,0.51,-14.63,-4.9754.18,
-0.34,1.55,0.23,-8.68,-28.0756.70,
0.07,1.67,-0.14,5.67,-18.2052.78,
-0.08,1.78,0.00,-7.49,12.6041.79,
0.09,1.59,0.37,-35.07,10.2239.06,
0.22,1.52,0.41,-40.74,-3.3641.37,
0.26,1.55,0.51,-51.80,-17.9245.78,
0.33,1.62,0.70,-65.94,-20.0951.38,
0.37,1.63,0.78,-77.84,-8.2649.91,
0.24,1.54,0.57,-74.69,14.3541.86,
0.14,1.34,0.37,-59.08,27.5131.64,
-0.02,1.14,0.31,-39.20,20.0922.40,
-0.06,1.02,0.22,-11.62,7.2114.91,
-0.05,0.94,0.22,25.06,-2.175.53,
-0.01,0.97,0.27,58.73,-16.66,
0.01,1.06,0.38,79.03,-31.29,
0.09,1.17,0.49,88.83,-33.39,
0.19,1.37,0.41,92.96,2.94-35.84,
0.26,1.46,0.32,86.17,1.19-37.17,
0.34,1.44,0.33,73.29,-33.74,
0.39,1.37,0.35,51.87,-25.83,
0.42,1.17,0.32,37.10,3.78-17.22,
0.35,1.01,0.26,29.75,15.12-13.23,
0.26,0.87,0.22,29.40,24.22-11.27,
0.14,0.80,0.20,33.32,28.84-11.06,
0.04,0.78,0.15,36.54,28.98-13.09,
-0.04,0.77,0.14,37.80,24.36-16.73,
-0.10,0.77,0.16,37.38,18.69-23.03,
-0.12,0.77,0.17,35.84,11.20-27.93,
-0.11,0.78,0.19,34.23,3.15-31.92,
0.04,0.41,0.65,7.63,6.2327.37,
0.05,0.42,0.71,15.26,2.1723.66,
0.06,0.47,0.78,22.05,-3.0119.74,
0.09,0.49,0.81,24.22,-8.1217.64,
0.15,0.53,0.79,23.94,-13.5118.34,
0.20,0.55,0.74,29.26,-20.2321.35,
0.27,0.48,0.69,43.05,-27.8621.49,
0.27,0.44,0.61,67.27,-33.6720.65,
0.26,0.45,0.57,93.17,-36.2616.52,
0.20,0.51,0.85,97.86,-32.5515.19,
0.12,0.82,1.08,64.54,-23.9415.33,
0.13,1.13,1.02,25.62,-12.608.40,
0.08,1.32,0.86,18.55,-5.256.30,
0.09,1.44,0.80,53.97,0.35-0.35,
-0.04,1.55,0.87,87.64,7.98-10.01,
-0.10,1.57,0.78,78.68,17.29-20.65,
-0.05,1.20,0.59,70.21,26.81-25.34,
-0.03,0.75,0.42,83.44,30.80-24.99,
0.00,0.53,0.32,94.01,25.90-18.76,
0.01,0.49,0.31,96.74,10.99-15.96,
0.06,0.62,0.41,85.89,2.87-12.53,
0.08,0.69,0.42,74.55,-11.27,
0.06,0.68,0.39,74.97,-11.06,
-0.01,0.73,0.40,76.51,-13.30,
-0.08,0.83,0.43,71.47,-24.29,
-0.12,0.96,0.45,64.54,-33.88,
-0.12,1.12,0.42,60.06,-45.64,
-0.09,1.14,0.40,60.20,-54.11,
-0.08,1.10,0.37,71.40,-63.14,
-0.06,1.09,0.34,77.42,-71.05,
-0.02,1.05,0.32,77.98,-76.72,
0.04,0.98,0.28,83.37,-82.88,
0.08,0.92,0.28,82.74,-90.09,
0.14,0.92,0.29,85.61,-94.92,
0.19,0.90,0.29,85.26,-94.71,
0.22,0.90,0.30,85.96,-94.22,
0.23,0.88,0.29,87.57,-89.46,
0.23,0.92,0.29,89.53,-85.26,
0.23,0.97,0.28,88.97,-79.66,
0.21,0.99,0.27,84.63,-73.57,
0.17,1.00,0.26,79.94,-65.38,
0.14,0.98,0.22,77.91,-57.12,
0.07,0.96,0.20,74.34,-51.94,
0.03,0.93,0.20,72.24,-48.65,
0.00,0.88,0.20,71.05,-50.12,
-0.01,0.83,0.18,74.06,-52.43,
-0.02,0.81,0.19,74.13,-56.84,
0.01,0.81,0.19,74.48,-60.69,
0.03,0.82,0.20,69.23,-60.27,
0.07,0.82,0.20,66.29,-56.49,
0.09,0.81,0.17,62.65,-47.04,
0.04,0.82,0.12,57.75,-45.71,
0.02,0.82,0.24,51.73,-49.84,
0.01,0.80,0.18,43.68,-55.72,
0.05,0.82,0.18,36.47,-64.61,
0.06,0.79,0.17,31.92,-70.70,
0.13,0.80,0.17,26.25,-73.78,
0.20,0.80,0.17,23.45,-73.50,
0.24,0.83,0.17,19.46,-69.58,
0.25,0.87,0.12,15.12,-60.20,
0.28,0.90,0.10,18.48,-50.96,
0.24,0.97,0.10,27.72,-38.64,
0.25,1.05,0.11,35.70,1.33-27.44,
0.23,1.12,0.14,38.92,5.67-22.61,
0.22,1.17,0.19,38.36,8.40-20.09,
0.22,1.20,0.23,33.74,8.96-18.97,
0.20,1.18,0.23,23.59,6.72-14.56,
0.18,1.15,0.18,17.92,2.87-10.99,
0.14,1.17,0.13,12.74,-11.06,
0.10,1.22,0.10,7.07,-14.49,
0.05,1.28,0.10,2.10,-14.35,
-0.02,1.37,0.14,-1.75,-11.69,
-0.08,1.54,0.14,-7.49,-8.75,
-0.08,1.64,0.05,-20.93,1.05-5.88,
-0.11,1.63,0.02,-39.97,1.47-1.12,
-0.17,1.63,0.06,-49.70,1.824.55,
-0.18,1.49,0.11,-48.02,1.408.82,
-0.20,1.42,0.17,-40.95,-0.6310.08,
-0.24,1.40,0.21,-40.18,-4.6210.71,
-0.27,1.38,0.26,-49.14,-9.2411.41,
-0.25,1.32,0.26,-62.79,-13.7911.13,
-0.19,1.20,0.27,-75.95,-16.459.31,
-0.12,1.07,0.33,-91.21,-14.777.00,
-0.07,0.97,0.42,-104.09,-8.265.81,
-0.02,0.94,0.48,-119.77,-1.406.23,
0.05,0.97,0.42,-137.41,4.698.89,
0.12,0.97,0.39,-154.00,13.6515.68,
0.18,0.96,0.35,-164.01,21.6325.90,
0.21,0.99,0.32,-168.14,24.8535.28,
0.19,1.01,0.32,-167.86,22.1945.22,
0.16,1.02,0.35,-158.62,18.5554.88,
0.11,1.03,0.35,-147.14,14.5662.79,
0.08,1.02,0.37,-135.52,12.1868.11,
0.06,0.88,0.37,-127.12,11.4172.94,
0.08,0.90,0.36,-112.14,13.2375.04,
0.03,0.88,0.36,-95.97,13.7974.55,
0.00,0.83,0.34,-79.80,13.8672.59,
-0.03,0.80,0.31,-60.90,15.1268.67,
-0.07,0.79,0.32,-48.65,17.2964.33,
-0.10,0.74,0.40,-37.17,19.8159.78,
-0.11,0.84,0.51,-38.57,24.9950.61,
-0.10,0.90,0.60,-59.57,27.9348.30,
-0.02,0.99,0.68,-64.68,29.4051.52,
-0.04,0.93,0.70,-101.71,35.0752.78,
-0.03,0.83,0.59,-118.86,39.2752.92,
-0.02,0.73,0.44,-129.57,44.4551.38,
0.01,0.74,0.38,-127.47,49.1448.93,
0.01,0.57,0.33,-114.80,51.2447.95,
-0.01,0.57,0.29,-99.33,44.3846.20,
0.01,0.53,0.30,-80.08,39.4843.89,
-0.01,0.52,0.33,-62.79,34.0241.86,
-0.01,0.49,0.38,-55.44,29.8237.73,
-0.03,0.50,0.41,-52.85,24.0136.19,
-0.03,0.46,0.41,-59.92,18.2737.87,
-0.05,0.43,0.42,-67.55,15.5439.06,
0.00,0.48,0.46,-64.82,19.2535.91,
0.01,0.46,0.49,-66.29,24.2234.65,
-0.01,0.36,0.53,-66.36,27.5831.71,
0.03,0.34,0.53,-61.81,34.7926.88,
0.01,0.36,0.54,-56.21,37.9418.76,
0.00,0.32,0.52,-49.70,39.7617.50,
0.03,0.35,0.53,-37.80,37.6616.10,
0.05,0.32,0.53,-27.58,29.7514.98,
0.05,0.26,0.56,-11.83,19.7412.81,
0.04,0.21,0.58,2.94,10.089.03,
0.04,0.16,0.68,21.07,3.362.17,
0.05,0.22,0.75,33.74,-8.54,
0.04,0.28,0.80,38.22,-18.13,
0.09,0.40,0.83,40.95,-27.93,
0.10,0.49,0.86,41.44,-33.67,
0.09,0.52,0.82,40.53,-41.515.32,
0.10,0.40,0.77,56.98,-41.6511.20,
0.05,0.28,0.63,94.15,-35.218.96,
0.05,0.42,0.77,141.12,-29.686.30,
0.07,1.03,1.28,107.66,-30.1010.43,
0.11,1.28,1.02,73.43,-27.1611.83,
0.07,1.53,0.84,112.35,-17.50,
0.10,2.24,0.84,149.03,-31.22,
0.07,2.36,0.86,125.58,-33.32,
0.22,1.60,0.67,101.15,4.900.07,
0.19,0.78,0.56,98.56,29.33-2.38,
0.15,0.37,0.47,110.32,41.86-7.91,
0.10,0.24,0.37,124.32,33.39-9.17,
0.12,0.34,0.35,113.19,24.36-5.95,
0.03,0.36,0.34,92.05,19.11-5.32,
-0.06,0.35,0.28,81.62,19.53-3.29,
-0.09,0.46,0.23,71.40,17.92-3.57,
-0.20,0.53,0.23,72.80,10.15-9.80,
-0.24,0.70,0.34,69.93,0.35-17.78,
-0.25,0.90,0.39,73.22,-37.94,
-0.19,1.21,0.43,77.42,-59.43,
-0.10,1.46,0.41,81.34,-73.99,
-0.04,1.41,0.41,83.51,-77.14,
0.01,1.26,0.41,90.23,-76.79,
0.09,1.09,0.36,93.66,-74.69,
0.13,0.99,0.29,96.88,-80.15,
0.23,0.85,0.29,97.09,-83.23,
0.25,0.79,0.29,92.26,-82.60,
0.24,0.76,0.29,86.45,-82.53,
0.26,0.83,0.30,78.96,-78.33,
0.22,0.84,0.23,77.49,-71.89,
0.19,0.92,0.21,78.05,-66.22,
0.17,0.95,0.22,75.18,-58.87,
0.10,0.97,0.20,74.69,-54.53,
0.05,0.97,0.18,74.41,-50.96,
0.06,0.98,0.17,75.46,-45.71,
0.04,0.93,0.17,74.13,-38.92,
0.03,0.88,0.14,73.29,-33.46,
0.06,0.86,0.10,73.15,-34.30,
0.07,0.86,0.10,69.16,-36.96,
0.07,0.86,0.09,65.17,-38.92,
0.04,0.86,0.08,61.81,-19.67,
0.02,0.85,0.13,57.26,-34.30,
-0.03,0.83,0.14,55.30,-29.82,
-0.10,0.83,0.12,53.27,-34.79,
-0.09,0.84,0.13,51.45,-42.14,
-0.14,0.84,0.10,47.60,-52.29,
-0.12,0.85,0.06,43.61,-65.80,
-0.08,0.86,0.07,34.86,-78.96,
-0.01,0.87,0.10,28.14,-83.65,
0.03,0.91,0.11,24.50,-81.90,
0.08,0.99,0.11,20.16,-77.56,
0.11,1.04,0.09,18.41,-74.41,
0.14,1.09,0.06,17.08,-64.05,
0.18,1.14,0.06,18.13,-57.26,
0.20,1.10,0.08,17.57,-47.11,
0.37,1.06,0.09,18.48,-40.74,
0.28,1.01,0.09,19.81,-37.24,
0.28,0.99,0.10,21.70,-34.30,
0.27,1.02,0.09,23.80,-31.43,
0.23,1.07,0.10,24.36,-30.10,
0.20,1.13,0.13,21.42,-27.93,
0.14,1.20,0.16,16.17,-26.25,
0.10,1.24,0.18,10.85,-24.78,
0.07,1.28,0.20,2.38,-24.36,
0.03,1.30,0.20,-5.46,-23.17,
-0.03,1.30,0.22,-10.57,-23.38,
-0.04,1.37,0.17,-14.28,-24.22,
-0.02,1.46,0.09,-26.53,-22.82,
0.00,1.44,0.04,-43.47,-16.24,
0.00,1.42,0.05,-52.36,-8.333.85,
-0.02,1.34,0.11,-51.10,-5.3910.85,
-0.09,1.27,0.18,-46.48,-5.1814.63,
-0.15,1.26,0.23,-44.73,-7.2116.17,
-0.23,1.27,0.26,-49.00,-11.6917.29,
-0.27,1.28,0.26,-60.48,-16.6617.57,
-0.22,1.23,0.27,-76.37,-19.2518.55,
-0.16,1.15,0.33,-91.56,-16.5919.53,
-0.12,1.11,0.39,-109.20,-11.3420.65,
-0.08,1.10,0.42,-122.29,-8.7521.98,
-0.02,1.10,0.41,-139.37,-7.4924.71,
0.06,1.06,0.37,-157.85,-3.1533.25,
0.14,1.04,0.29,-174.30,6.0940.95,
0.18,1.01,0.25,-179.69,8.8249.14,
0.13,1.05,0.29,-178.01,6.7956.35,
0.09,1.05,0.35,-168.35,1.2662.44,
0.06,1.05,0.40,-151.27,-5.8168.11,
0.02,1.08,0.43,-137.41,-9.8771.47,
0.02,1.00,0.42,-125.51,-9.1773.43,
0.01,0.91,0.39,-110.11,-6.3773.22,
0.03,0.84,0.37,-89.11,-2.0373.08,
0.03,0.83,0.36,-69.23,5.8872.10,
0.01,0.81,0.37,-58.94,13.7268.53,
-0.02,0.84,0.39,-58.87,19.2561.53,
-0.03,0.84,0.46,-63.00,22.1256.21,
-0.04,0.88,0.51,-75.39,25.7651.45,
-0.03,0.87,0.50,-91.28,30.9447.18,
0.00,0.87,0.44,-97.30,36.0548.51,
0.01,0.86,0.43,-103.18,36.8950.12,
0.02,0.83,0.48,-110.74,32.8350.12,
0.03,0.70,0.50,-111.02,26.1856.56,
0.07,0.69,0.51,-106.61,21.8459.78,
0.05,0.63,0.46,-105.63,22.2659.78,
-0.02,0.51,0.37,-100.45,31.1552.99,
-0.02,0.41,0.33,-88.69,43.2646.34,
-0.03,0.38,0.31,-69.02,48.3735.77,
0.02,0.39,0.35,-64.19,48.2333.04,
0.07,0.39,0.37,-61.25,40.7438.92,
0.03,0.39,0.40,-64.19,29.4744.94,
0.07,0.47,0.46,-53.83,26.8848.65,
0.02,0.36,0.55,-55.44,28.8450.40,
0.01,0.34,0.59,-55.58,35.2844.10,
-0.01,0.33,0.58,-52.85,42.3534.86,
0.02,0.33,0.58,-54.95,49.4227.09,
0.01,0.32,0.57,-49.98,54.1121.84,
0.06,0.31,0.55,-37.73,58.1018.20,
0.06,0.29,0.55,-26.32,53.2017.57,
0.08,0.28,0.57,-10.08,43.5417.57,
0.07,0.25,0.58,4.06,34.5116.24,
0.05,0.25,0.61,19.39,25.5514.56,
0.04,0.27,0.64,33.32,18.1312.53,
0.02,0.27,0.68,44.17,13.0911.69,
0.01,0.27,0.74,53.06,9.3810.15,
0.02,0.32,0.80,60.27,5.818.54,
0.06,0.43,0.79,58.24,-2.247.35,
0.13,0.60,0.82,54.11,-17.0812.88,
0.18,0.63,0.79,46.62,-34.7921.07,
0.21,0.47,0.71,56.07,-41.5123.87,
0.08,0.38,0.70,72.45,-29.5420.16,
-0.05,0.45,0.85,97.86,-12.8113.02,
-0.04,0.98,1.29,59.64,-3.579.94,
-0.01,1.21,1.09,29.68,-0.144.20,
-0.01,1.44,0.81,71.19,-9.31,
-0.03,2.14,0.99,140.28,-29.96,
-0.06,2.33,0.97,124.81,-35.42,
0.17,1.93,0.71,96.67,12.18-15.82,
0.16,1.07,0.55,91.56,38.15-18.83,
0.06,0.59,0.42,109.69,41.02-25.34,
0.03,0.46,0.38,120.40,23.94-23.17,
0.08,0.48,0.41,120.33,4.34-16.87,
0.02,0.54,0.37,98.70,-24.71,
-0.02,0.59,0.28,91.91,-30.73,
-0.14,0.66,0.22,89.67,-38.08,
-0.21,0.71,0.20,79.45,-47.32,
-0.27,0.76,0.22,72.31,-62.44,
-0.32,0.85,0.26,67.83,-80.36,
-0.29,0.96,0.29,69.79,-94.01,
-0.23,1.06,0.32,76.86,-119.98,
-0.12,1.11,0.33,86.66,-109.41,
-0.04,1.14,0.32,99.68,-111.37,
0.05,1.09,0.32,105.21,-110.74,
0.14,1.06,0.30,103.25,-109.34,
0.19,0.98,0.27,99.75,-111.72,
0.25,0.88,0.25,95.41,-109.97,
0.29,0.86,0.22,95.97,-110.81,
0.34,0.89,0.26,86.59,-102.55,
0.25,0.82,0.21,82.18,-101.15,
0.26,0.82,0.24,83.02,-95.62,
0.26,0.91,0.23,79.31,-87.92,
0.25,0.93,0.23,76.44,-78.89,
0.17,0.94,0.19,76.51,-76.37,
0.11,1.00,0.22,69.44,-69.79,
0.09,1.01,0.17,63.56,-63.49,
0.08,0.97,0.16,58.73,-57.05,
0.09,0.92,0.16,54.39,-47.53,
0.11,0.87,0.15,51.80,-41.16,
0.11,0.82,0.13,48.86,-35.84,
0.10,0.77,0.08,48.23,-32.55,
0.06,0.77,0.09,48.72,-30.80,
0.03,0.79,0.14,45.36,-31.08,
-0.04,0.81,0.13,43.12,-29.47,
-0.03,0.81,0.12,43.54,-27.51,
-0.11,0.81,0.09,47.74,-27.93,
-0.10,0.89,0.12,46.83,-37.73,
-0.09,0.89,0.14,43.05,-48.37,
-0.07,0.89,0.15,35.28,-56.91,
-0.02,0.87,0.18,30.24,-60.20,
0.04,0.86,0.17,28.21,-61.74,
0.08,0.89,0.16,24.43,-62.58,
0.15,0.92,0.14,18.06,-62.09,
0.20,0.95,0.10,13.30,-53.27,
0.24,0.98,0.10,8.75,-44.24,
0.26,1.01,0.10,4.41,-36.40,
0.25,1.04,0.09,2.52,-30.80,
0.25,1.07,0.11,1.26,-28.28,
0.26,1.06,0.13,2.73,-24.99,
0.28,1.07,0.15,5.88,-21.84,
0.28,1.07,0.16,10.36,-16.52,
0.28,1.08,0.16,15.05,-11.76,
0.26,1.10,0.15,16.80,1.26-8.47,
0.23,1.13,0.16,18.06,6.58-9.73,
0.19,1.16,0.17,16.94,11.34-12.60,
0.14,1.21,0.18,14.00,15.05-16.87,
0.09,1.28,0.20,10.29,35.56-20.93,
0.06,1.36,0.19,4.41,20.86-24.64,
0.02,1.40,0.21,-6.09,22.68-26.25,
-0.02,1.46,0.20,-14.77,23.38-26.95,
-0.02,1.52,0.08,-30.80,22.75-23.24,
-0.04,1.39,0.01,-53.34,21.35-10.08,
-0.08,1.40,0.07,-63.49,19.601.82,
-0.07,1.31,0.18,-56.07,17.2211.55,
-0.10,1.27,0.25,-49.49,13.0915.61,
-0.15,1.25,0.27,-46.34,10.8517.36,
-0.22,1.26,0.28,-47.53,10.5717.36,
-0.21,1.26,0.27,-53.76,10.9915.26,
-0.15,1.23,0.26,-64.26,12.8113.58,
-0.07,1.15,0.31,-83.16,17.7811.55,
0.01,1.07,0.41,-96.04,26.1810.99,
0.03,1.05,0.43,-108.57,36.4012.39,
0.05,1.08,0.43,-126.70,45.9216.59,
0.08,1.07,0.41,-143.92,56.0722.19,
0.12,1.06,0.39,-158.90,59.6429.61,
0.14,1.03,0.35,-170.80,55.1639.06,
0.12,1.01,0.33,-171.50,43.9649.35,
0.05,1.02,0.32,-163.03,31.5059.92,
-0.01,1.03,0.30,-151.76,20.4471.12,
-0.04,1.03,0.31,-137.69,12.7475.81,
-0.08,0.97,0.31,-121.66,8.2676.93,
-0.07,0.90,0.35,-106.12,8.5475.81,
-0.09,0.88,0.37,-81.97,10.9272.59,
-0.07,0.85,0.37,-68.04,13.6569.02,
-0.10,0.85,0.34,-59.71,16.4564.05,
-0.08,0.82,0.34,-51.87,19.5355.86,
-0.07,0.80,0.37,-48.44,25.4849.21,
-0.02,0.78,0.44,-48.30,29.2644.52,
0.00,0.78,0.53,-56.70,33.3940.74,
0.03,0.80,0.56,-67.48,36.8238.85,
0.05,0.85,0.54,-75.04,38.7141.79,
0.06,0.83,0.53,-93.17,38.7846.55,
0.06,0.73,0.50,-107.03,36.7551.80,
0.03,0.65,0.48,-111.02,36.6857.61,
0.00,0.58,0.44,-89.81,41.0960.41,
-0.03,0.57,0.38,-99.54,45.5758.59,
-0.09,0.54,0.36,-86.94,43.4753.55,
-0.06,0.58,0.36,-78.61,40.6749.98,
-0.07,0.56,0.34,-67.55,41.3743.12,
-0.05,0.55,0.34,-58.03,37.3141.09,
0.00,0.60,0.38,-48.93,29.5442.00,
0.02,0.59,0.45,-42.98,24.0145.50,
-0.01,0.56,0.48,-49.14,20.7247.25,
-0.04,0.49,0.49,-54.04,24.2946.69,
-0.06,0.47,0.52,-62.16,28.4944.24,
-0.03,0.45,0.54,-68.53,32.7637.52,
-0.09,0.44,0.52,-68.18,34.2335.84,
-0.04,0.46,0.49,-60.62,33.4635.63,
-0.01,0.51,0.49,-56.70,32.9734.37,
-0.07,0.41,0.51,-50.75,29.1938.71,
-0.08,0.40,0.51,-43.19,24.1537.31,
-0.09,0.45,0.53,-39.41,16.0335.56,
-0.08,0.43,0.56,-30.87,10.3634.58,
-0.08,0.44,0.60,-21.77,4.6933.39,
-0.10,0.46,0.64,-11.83,1.4731.64,
-0.04,0.47,0.70,-5.04,-0.7731.92,
-0.02,0.51,0.72,1.75,-0.4929.19,
0.01,0.48,0.73,6.09,0.3525.97,
0.03,0.43,0.77,9.10,0.0722.89,
0.07,0.40,0.79,13.79,-2.5218.34,
0.11,0.40,0.81,20.30,-3.7115.19,
0.14,0.41,0.83,29.54,-4.4813.37,
0.19,0.45,0.86,36.47,-3.6410.71,
0.25,0.50,0.87,42.63,-1.408.12,
0.30,0.57,0.89,45.29,0.283.92,
0.35,0.59,0.92,45.71,0.910.00,
0.33,0.67,0.92,45.78,-8.05,
0.34,0.62,0.88,45.71,-12.46,
0.30,0.59,0.83,53.62,-14.840.42,
0.23,0.49,0.75,72.66,-14.910.56,
0.12,0.50,0.81,92.47,-13.302.38,
0.05,0.96,1.23,78.61,-9.665.67,
0.08,1.23,1.27,30.24,-4.415.25,
-0.03,1.31,0.89,43.61,2.520.49,
-0.03,1.46,0.85,96.81,5.88-10.92,
-0.04,1.31,0.72,112.00,13.58-21.77,
0.00,1.21,0.65,106.40,19.60-26.60,
0.05,0.73,0.59,101.57,22.26-29.40,
0.05,0.49,0.49,107.73,0.77-30.59,
0.02,0.41,0.42,108.99,8.89-29.96,
0.06,0.38,0.33,112.07,2.38-31.08,
0.03,0.56,0.34,103.60,-32.55,
0.02,0.61,0.36,90.02,-30.73,
0.02,0.72,0.34,79.24,-28.84,
0.01,0.76,0.32,78.96,-28.07,
-0.03,0.82,0.37,76.23,-35.28,
-0.05,0.92,0.40,78.33,-40.46,
-0.07,1.08,0.41,76.86,-45.64,
-0.05,1.12,0.41,77.35,-50.61,
-0.02,1.11,0.40,83.23,-54.88,
0.03,1.07,0.38,87.92,-57.33,
0.13,0.98,0.36,90.44,-59.22,
0.22,0.93,0.32,93.59,-61.95,
0.24,0.87,0.28,93.80,-65.94,
0.27,0.82,0.26,94.08,-67.48,
0.27,0.82,0.27,91.77,-66.08,
0.27,0.83,0.29,89.81,-62.72,
0.26,0.89,0.29,87.78,-56.84,
0.25,0.98,0.30,83.16,-45.92,
0.22,1.04,0.34,77.28,-37.45,
0.20,1.06,0.35,68.11,2.24-29.12,
0.14,1.07,0.30,67.13,8.40-30.52,
0.09,1.10,0.26,62.09,11.62-32.55,
0.03,1.02,0.23,60.13,12.11-33.53,
-0.01,0.95,0.18,58.73,8.96-32.62,
-0.01,0.90,0.16,57.40,4.06-32.06,
0.01,0.83,0.15,56.70,2.17-32.27,
0.04,0.78,0.10,59.15,3.43-31.71,
0.05,0.75,0.09,62.16,6.51-30.17,
0.05,0.73,0.10,66.15,10.92-26.46,
0.08,0.78,0.12,66.92,16.59-24.08,
0.08,0.79,0.13,65.94,23.17-21.35,
0.05,0.79,0.12,66.85,24.15-16.10,
0.06,0.87,0.18,63.70,24.36-13.93,
0.02,0.89,0.23,59.08,23.03-16.24,
-0.07,0.84,0.22,55.58,20.09-12.32,
-0.05,0.85,0.18,56.14,15.33-11.48,
-0.04,0.87,0.15,53.27,10.64-14.63,
-0.02,0.83,0.12,49.35,6.23-17.08,
0.01,0.84,0.11,44.45,5.25-20.37,
0.03,0.83,0.10,40.46,8.05-22.19,
0.04,0.86,0.08,38.85,12.95-26.11,
0.04,0.89,0.07,39.06,18.34-28.98,
0.04,0.96,0.06,37.66,21.70-30.73,
0.05,0.98,0.08,32.97,24.57-29.47,
0.08,1.00,0.09,29.54,25.06-27.72,
0.10,1.00,0.08,26.95,23.24-25.62,
0.12,0.99,0.06,24.85,19.32-24.43,
0.14,0.97,0.04,22.89,14.84-22.82,
0.15,0.98,0.03,18.69,12.60-23.24,
0.15,0.96,0.03,17.64,13.44-25.69,
0.12,0.97,0.04,17.57,18.62-25.76,
0.11,1.01,0.07,16.03,23.94-30.38,
0.07,1.01,0.07,14.35,27.65-32.62,
0.03,1.04,0.08,13.86,29.54-35.14,
-0.03,1.04,0.05,13.93,27.37-37.59,
-0.06,1.08,-0.02,9.45,20.30-38.92,
-0.07,1.10,-0.09,1.75,7.63-38.50,
-0.09,1.09,-0.07,-2.80,0.70-36.96,
-0.13,1.09,0.04,0.28,-34.65,
-0.19,1.10,0.15,5.25,-29.96,
-0.19,1.12,0.16,6.51,-25.27,
-0.12,1.12,0.12,6.37,-23.87,
-0.04,1.05,0.10,5.32,-21.56,
0.12,1.04,0.12,6.44,-21.28,
0.19,1.03,0.14,5.67,-21.14,
0.25,1.02,0.16,3.01,2.24-21.00,
0.33,1.02,0.15,-1.33,4.13-19.32,
0.39,1.03,0.12,-7.70,6.02-14.91,
0.38,1.12,0.08,-17.71,6.72-10.36,
0.32,1.21,0.05,-24.08,8.54-5.53,
0.27,1.30,0.03,-29.61,11.41-1.33,
0.18,1.35,0.00,-43.33,15.333.15,
0.07,1.36,-0.01,-60.55,20.448.75,
0.00,1.32,0.01,-77.00,28.4916.80,
-0.07,1.24,0.01,-91.00,38.2932.55,
-0.12,1.11,0.02,-101.92,47.1147.53,
-0.16,1.01,0.04,-110.88,55.0262.37,
-0.16,0.96,0.10,-119.70,62.2373.85,
-0.20,0.94,0.15,-135.03,68.0482.32,
-0.22,0.93,0.20,-145.88,73.0887.36,
-0.26,1.01,0.25,-151.27,75.9587.99,
-0.29,1.11,0.29,-152.53,72.9484.98,
-0.31,1.21,0.27,-148.19,69.8679.17,
-0.29,1.20,0.17,-137.27,67.9773.50,
-0.18,1.12,0.10,-119.70,66.2970.00,
-0.09,1.08,0.06,-111.51,64.6867.27,
-0.04,1.11,0.09,-107.87,63.5663.14,
-0.03,1.19,0.09,-107.87,59.2956.42,
0.03,1.14,0.08,-107.38,54.2550.75,
0.06,1.07,0.11,-102.97,46.2748.79,
0.07,1.01,0.16,-94.22,41.7248.58,
0.01,1.00,0.25,-87.92,37.6649.56,
-0.06,0.94,0.30,-86.17,36.4050.61,
-0.12,0.86,0.32,-84.98,38.6471.54,
-0.13,0.79,0.33,-81.97,45.5757.05,
-0.12,0.74,0.33,-75.39,56.2159.71,
-0.06,0.75,0.35,-67.62,63.2160.48,
0.01,0.72,0.36,-57.75,68.3960.13,
0.07,0.71,0.39,-45.92,72.4560.62,
0.14,0.70,0.40,-33.60,74.0661.32,
0.15,0.70,0.41,-29.47,72.1763.77,
0.15,0.66,0.40,-25.27,69.7965.94,
0.16,0.63,0.37,-21.14,69.2369.72,
0.15,0.63,0.34,-16.24,70.7074.06,
0.16,0.63,0.31,-9.94,71.4080.36,
0.14,0.67,0.28,-4.69,72.1785.26,
0.13,0.71,0.25,0.91,74.2787.29,
0.12,0.76,0.23,7.35,76.1687.15,
0.08,0.78,0.22,15.26,77.2884.91,
0.03,0.79,0.22,24.08,77.8481.48,
-0.01,0.79,0.23,33.53,78.1277.63,
-0.04,0.77,0.24,37.66,79.1074.20,
-0.06,0.79,0.27,39.83,79.7370.77,
-0.07,0.77,0.31,39.34,79.1767.55,
-0.06,0.80,0.33,36.75,79.7365.94,
-0.04,0.83,0.34,34.51,80.7162.65,
-0.04,0.87,0.34,31.78,81.0660.76,
-0.03,0.89,0.36,25.90,80.0156.77,
-0.04,0.88,0.38,20.30,78.0552.01,
-0.05,0.86,0.41,15.68,75.2548.23,
-0.03,0.86,0.39,14.14,73.4342.91,
-0.02,0.86,0.39,14.42,53.8337.38,
-0.01,0.84,0.40,15.19,67.6931.92,
0.01,0.82,0.44,15.68,62.8626.81,
0.03,0.80,0.45,17.92,58.2422.33,
0.04,0.79,0.45,20.79,55.9318.83,
0.05,0.80,0.45,24.29,55.8615.96,
0.08,0.84,0.45,28.63,59.1514.14,
0.13,0.84,0.46,30.94,63.8412.53,
0.15,0.84,0.45,34.86,65.6613.30,
0.19,0.86,0.43,35.91,65.5216.80,
0.22,0.86,0.43,39.06,63.1421.98,
0.22,0.88,0.43,44.17,60.9727.72,
0.23,0.97,0.43,46.90,58.9435.14,
0.24,1.07,0.46,43.54,56.2840.88,
0.28,1.19,0.51,32.97,52.2245.99,
0.33,1.20,0.57,15.61,51.1049.00,
0.35,1.12,0.59,4.20,54.3251.24,
0.36,0.98,0.58,-4.13,60.6953.06,
0.35,0.83,0.54,-8.40,66.9953.20,
0.28,0.67,0.48,-5.53,69.7250.12,
0.02,0.63,0.43,-0.56,69.6547.25,
-0.04,0.67,0.38,7.77,68.3243.68,
-0.11,0.81,0.33,19.60,66.5039.48,
-0.16,1.00,0.33,28.00,65.5935.63,
-0.22,1.22,0.29,37.31,66.0831.01,
-0.29,1.37,0.17,44.10,64.5427.30,
-0.34,1.43,0.15,39.90,60.7623.10,
-0.31,1.51,0.21,19.74,49.3517.01,
-0.23,1.49,0.28,-6.93,39.9013.30,
-0.10,1.28,0.29,-25.27,31.3612.04,
0.07,1.12,0.27,-30.94,27.7911.83,
0.17,0.90,0.21,-31.29,29.8911.34,
0.19,0.69,0.15,-21.21,35.7711.27,
0.19,0.64,0.11,-8.54,43.4011.55,
0.17,0.66,0.13,1.96,51.3110.57,
0.14,0.70,0.14,18.06,59.368.26,
0.11,0.77,0.13,31.01,65.105.25,
0.10,0.90,0.11,45.71,65.942.87,
0.08,1.05,0.08,57.96,59.431.68,
0.08,1.21,0.08,63.98,47.742.52,
0.06,1.29,0.15,65.24,37.241.75,
0.07,1.34,0.23,63.70,34.860.91,
0.13,1.33,0.26,58.31,35.562.03,
0.14,1.26,0.24,51.03,37.241.75,
0.11,1.15,0.21,44.31,38.990.91,
0.08,1.04,0.18,38.71,40.880.14,
0.06,0.98,0.16,35.35,42.56-2.24,
0.00,0.93,0.16,34.16,42.70-5.67,
-0.03,0.89,0.17,34.79,43.47-9.66,
-0.06,0.86,0.18,38.22,44.03-13.93,
-0.05,0.86,0.17,41.79,45.57-19.39,
-0.04,0.84,0.16,45.22,47.39-23.87,
-0.03,0.86,0.15,47.25,47.95-27.30,
0.01,0.87,0.12,48.37,47.60-28.42,
0.06,0.89,0.10,47.46,47.32-26.67,
0.09,0.89,0.09,42.91,47.04-24.08,
0.13,0.87,0.09,42.07,47.18-21.56,
0.16,0.86,0.08,42.42,47.67-18.69,
0.16,0.88,0.08,42.63,48.51-16.24,
0.01,0.86,0.04,44.66,47.95-14.91,
0.07,0.87,0.04,47.04,47.04-14.28,
0.02,0.88,0.05,45.64,45.22-13.72,
-0.01,0.86,0.05,43.05,42.91-14.00,
-0.03,0.84,0.08,41.16,41.02-14.56,
-0.05,0.82,0.09,41.16,39.41-16.80,
-0.06,0.82,0.10,42.14,37.10-18.90,
-0.04,0.84,0.12,43.61,33.04-21.21,
-0.03,0.86,0.14,43.96,29.96-22.75,
-0.02,0.90,0.15,41.79,27.23-24.50,
-0.03,0.92,0.14,37.59,24.22-25.41,
-0.01,0.92,0.12,34.23,21.14-26.11,
0.01,0.90,0.10,31.15,16.87-24.85,
0.04,0.88,0.07,25.97,10.85-22.26,
0.08,0.86,0.07,19.81,8.40-18.97,
0.14,0.87,0.08,20.58,10.01-17.92,
0.15,0.90,0.06,24.50,12.11-17.36,
0.19,0.95,0.05,26.39,16.10-16.80,
0.19,0.98,0.03,27.93,22.54-16.10,
0.17,1.04,0.00,28.28,29.68-14.56,
0.17,1.08,-0.03,27.09,35.21-16.17,
0.14,1.09,-0.04,24.15,37.03-17.78,
0.11,1.09,-0.02,19.11,37.73-18.76,
0.06,1.10,0.00,13.44,37.66-19.39,
0.01,1.12,0.04,8.47,37.59-19.60,
0.00,1.17,0.09,5.81,38.15-20.65,
-0.02,1.18,0.13,3.92,37.45-21.63,
0.01,1.20,0.13,1.33,35.28-22.61,
0.04,1.18,0.11,-4.13,32.34-22.89,
0.09,1.15,0.09,-7.42,29.96-22.26,
0.13,1.12,0.09,-8.96,29.19-21.77,
0.16,1.13,0.11,-9.03,30.31-23.38,
0.19,1.12,0.14,-9.31,32.97-22.75,
0.22,1.11,0.18,-10.29,37.45-22.75,
0.25,1.10,0.18,-13.86,40.95-20.86,
0.30,1.11,0.17,-21.84,44.38-19.11,
0.31,1.13,0.13,-30.17,48.37-17.08,
0.31,1.16,0.10,-38.29,55.02-13.16,
0.29,1.17,0.05,-47.67,63.21-5.46,
0.24,1.17,0.01,-60.34,74.694.06,
0.16,1.20,-0.02,-77.00,85.1914.00,
0.08,1.17,-0.01,-99.54,96.1126.60,
-0.01,1.12,0.02,-113.61,105.8442.70,
-0.13,1.10,0.05,-125.51,112.6359.71,
-0.25,1.11,0.08,-135.66,114.5279.03,
-0.35,1.19,0.09,-148.40,108.8589.46,
-0.42,1.21,0.13,-160.51,96.8194.64,
-0.42,1.23,0.24,-171.36,84.9194.99,
-0.42,1.22,0.31,-169.82,77.4992.19,
-0.37,1.29,0.31,-158.97,80.2984.00,
-0.27,1.30,0.24,-151.27,87.0879.03,
-0.17,1.22,0.13,-144.90,86.8079.10,
-0.10,1.20,0.08,-139.23,84.2177.28,
0.03,1.23,0.13,-132.16,86.1071.40,
0.07,1.16,0.19,-123.83,91.9864.47,
0.11,1.04,0.20,-112.77,95.1361.95,
0.12,0.97,0.18,-101.22,93.6664.89,
0.09,0.89,0.24,-93.03,88.2774.20,
0.01,0.87,0.29,-90.86,83.9381.27,
-0.08,0.87,0.33,-94.85,80.2289.53,
-0.08,0.83,0.37,-96.25,80.3699.82,
-0.06,0.95,0.45,-101.22,87.15105.91,
-0.02,1.02,0.50,-107.52,94.92111.30,
0.02,1.06,0.55,-115.85,102.76114.87,
0.06,1.00,0.57,-113.05,109.34116.76,
0.02,0.94,0.56,-98.00,111.86115.50,
0.05,0.91,0.53,-86.24,108.43113.19,
0.05,0.85,0.52,-72.73,100.31116.90,
0.08,0.83,0.46,-63.49,90.37121.52,
0.09,0.82,0.44,-53.41,81.41126.28,
0.07,0.78,0.42,-45.92,76.65127.54,
0.05,0.76,0.42,-42.77,77.28122.50,
-0.01,0.76,0.42,-41.30,81.76115.71,
-0.02,0.73,0.45,-40.18,85.75107.94,
-0.03,0.76,0.47,-32.83,90.09105.00,
-0.02,0.76,0.51,-35.21,92.89106.89,
0.04,0.74,0.53,-32.48,94.85102.34,
0.01,0.73,0.55,-34.58,95.55101.43,
0.00,0.74,0.55,-33.04,94.01101.29,
-0.01,0.75,0.54,-35.91,92.7599.54,
0.01,0.72,0.55,-43.47,90.7299.75,
0.06,0.77,0.57,-49.84,91.6392.54,
0.06,0.70,0.56,-54.18,91.0097.51,
0.12,0.70,0.54,-53.48,92.6893.66,
0.09,0.58,0.53,-48.65,91.3595.27,
0.10,0.51,0.53,-39.27,87.2295.34,
0.10,0.48,0.55,-30.45,83.3796.11,
0.11,0.46,0.58,-20.02,80.1593.52,
0.15,0.44,0.63,-15.54,77.3594.78,
0.14,0.50,0.68,-12.95,76.8690.58,
0.17,0.57,0.70,-14.91,78.9685.54,
0.19,0.55,0.71,-18.76,80.0185.54,
0.20,0.57,0.71,-18.27,79.5984.00,
0.25,0.55,0.68,-13.93,81.5581.62,
0.23,0.57,0.67,-10.64,79.2480.64,
0.22,0.55,0.67,-2.52,77.4977.70,
0.18,0.55,0.68,3.71,73.7874.48,
0.14,0.55,0.71,9.66,66.1567.27,
0.10,0.55,0.73,18.83,55.5164.96,
0.09,0.54,0.73,29.89,43.8261.74,
0.08,0.54,0.70,44.59,29.7559.15,
0.02,0.55,0.69,64.96,16.1759.29,
-0.02,0.55,0.65,85.12,3.2257.40,
-0.04,0.64,0.72,107.03,-14.2153.06,
-0.18,1.02,0.80,110.25,-20.1639.06,
-0.33,1.32,0.75,87.78,-22.7522.96,
-0.42,1.23,0.65,100.87,-24.1514.49,
-0.41,1.38,0.51,100.94,-23.242.66,
-0.39,1.37,0.45,83.72,-24.78,
-0.29,1.26,0.44,76.86,-24.57,
-0.20,1.12,0.44,74.06,-23.45,
-0.14,0.93,0.37,78.12,-23.31,
-0.09,0.80,0.30,86.59,-24.01,
-0.05,0.79,0.28,91.84,-25.20,
0.01,0.82,0.25,95.76,-26.74,
0.06,0.97,0.32,89.74,-27.65,
0.08,1.05,0.37,80.92,-24.85,
0.06,1.13,0.38,73.78,-25.06,
0.02,1.14,0.37,65.17,-31.29,
-0.01,1.12,0.33,68.25,-39.76,
-0.02,1.12,0.32,73.50,-47.46,
-0.01,1.15,0.30,77.14,-51.59,
0.02,1.12,0.31,77.07,-50.96,
0.04,1.07,0.28,76.30,-51.31,
0.03,1.05,0.27,79.59,-55.30,
0.07,1.03,0.26,78.47,-57.12,
0.13,0.99,0.26,73.71,-57.40,
0.22,0.92,0.24,73.15,-50.82,
0.17,0.97,0.27,69.02,-53.06,
0.20,0.89,0.25,70.07,-50.12,
0.20,0.89,0.25,69.02,-44.66,
0.12,0.88,0.23,72.80,-43.75,
0.08,0.95,0.21,75.95,-38.92,
0.02,0.98,0.22,74.69,-35.14,
-0.02,0.98,0.20,73.22,-33.11,
-0.04,1.00,0.19,74.97,-32.69,
-0.05,1.01,0.18,74.76,-34.51,
-0.03,0.96,0.15,75.60,-36.82,
-0.01,0.92,0.13,73.78,-39.41,
0.00,0.88,0.14,71.68,-43.89,
0.02,0.84,0.13,68.25,-49.56,
0.03,0.79,0.13,65.24,-53.06,
0.04,0.76,0.13,63.07,-51.73,
0.07,0.79,0.14,60.69,-51.10,
0.04,0.78,0.13,55.44,-46.34,
-0.01,0.79,0.11,53.90,-46.83,
-0.02,0.82,0.13,50.82,-46.13,
0.00,0.83,0.13,49.49,-48.09,
0.05,0.84,0.09,45.57,-51.10,
0.09,0.83,0.08,39.41,-49.14,
0.13,0.81,0.12,37.10,-44.24,
0.13,0.86,0.12,38.29,-44.66,
0.14,0.92,0.12,34.72,-46.62,
0.14,0.94,0.13,27.51,-44.31,
0.14,0.97,0.16,22.96,-41.37,
0.15,0.98,0.20,24.08,-38.29,
0.19,1.04,0.25,24.50,-38.36,
0.22,1.04,0.29,24.01,-36.96,
0.26,1.08,0.28,20.30,-29.26,
0.33,1.11,0.24,18.97,-24.71,
0.36,1.11,0.22,17.36,-21.00,
0.39,1.12,0.21,13.79,2.10-14.77,
0.39,1.16,0.19,13.65,8.96-12.95,
0.34,1.22,0.20,12.04,14.35-10.01,
0.26,1.26,0.24,9.17,19.46-4.83,
0.19,1.37,0.26,3.71,25.13-0.77,
0.10,1.52,0.21,-10.15,31.224.34,
0.03,1.55,0.14,-40.95,34.1611.62,
-0.08,1.52,0.13,-56.35,34.5120.44,
-0.16,1.50,0.22,-62.58,33.3926.74,
-0.17,1.42,0.26,-65.52,29.2629.54,
-0.19,1.33,0.32,-70.00,24.1530.87,
-0.36,1.31,0.37,-82.32,21.3529.68,
-0.25,1.26,0.38,-95.34,21.0728.42,
-0.20,1.25,0.34,-111.93,22.1928.00,
-0.13,1.23,0.32,-124.11,24.9228.91,
-0.08,1.17,0.37,-135.94,28.6331.08,
-0.03,1.11,0.37,-147.70,35.3536.05,
0.01,1.07,0.35,-156.80,41.0939.62,
0.04,1.07,0.34,-165.62,45.1543.75,
0.07,1.11,0.35,-170.52,45.7847.74,
0.12,1.14,0.36,-168.21,42.2151.94,
0.11,1.06,0.34,-155.75,34.4458.73,
0.07,1.08,0.36,-141.68,30.4564.19,
-0.01,1.12,0.35,-133.70,29.9664.96,
-0.05,1.02,0.31,-121.94,28.0065.52,
-0.05,0.90,0.31,-98.14,28.4266.64,
-0.03,0.82,0.29,-72.31,29.1968.81,
-0.05,0.77,0.26,-57.96,30.8069.02,
-0.05,0.79,0.28,-54.88,31.2267.41,
-0.05,0.77,0.35,-52.78,25.3467.06,
-0.02,0.76,0.45,-51.80,20.0266.15,
-0.01,0.81,0.54,-57.68,18.8362.79,
0.05,0.91,0.62,-75.74,24.9259.71,
0.06,0.91,0.61,-92.96,29.1258.80,
0.08,0.89,0.54,-90.72,37.3162.58,
0.06,0.78,0.48,-100.52,44.4563.35,
0.08,0.62,0.41,-95.69,47.3266.01,
0.07,0.61,0.38,-89.11,48.8661.81,
0.05,0.60,0.36,-83.93,50.5459.29,
0.01,0.57,0.31,-70.91,54.1153.76,
-0.04,0.50,0.29,-54.88,57.2647.67,
-0.11,0.45,0.29,-40.32,53.1343.47,
-0.06,0.40,0.32,-34.44,46.6941.58,
-0.08,0.37,0.34,-33.88,38.7141.51,
-0.10,0.33,0.37,-36.19,35.0738.15,
-0.11,0.26,0.37,-43.40,34.0239.20,
-0.07,0.33,0.41,-39.41,36.5433.81,
-0.10,0.26,0.48,-40.67,39.4835.07,
-0.10,0.32,0.48,-42.28,40.3930.87,
-0.05,0.33,0.51,-41.51,41.2326.60,
-0.10,0.33,0.53,-39.83,38.0126.25,
-0.04,0.35,0.55,-30.03,33.2522.96,
0.02,0.31,0.57,-12.60,27.9320.30,
0.04,0.29,0.60,2.52,15.6118.48,
0.10,0.27,0.68,19.81,5.1815.26,
0.13,0.27,0.77,31.85,-3.367.21,
0.14,0.30,0.80,36.19,-10.43,
0.20,0.39,0.82,37.66,-18.34,
0.21,0.46,0.81,35.84,-20.58,
0.22,0.55,0.85,37.45,-20.86,
0.19,0.56,0.86,38.64,-21.56,
0.15,0.58,0.75,44.45,-23.521.26,
0.13,0.48,0.83,62.37,-28.6319.32,
0.05,0.82,1.20,50.96,-32.9740.25,
-0.08,1.20,1.06,22.61,-35.1430.73,
-0.14,1.63,0.98,57.96,-21.4910.92,
-0.07,1.95,1.02,101.43,-23.73,
-0.12,1.99,0.88,97.51,-31.01,
0.04,1.60,0.65,86.03,11.20-27.23,
0.05,0.86,0.56,91.56,25.55-28.70,
0.00,0.65,0.50,105.00,20.79-29.75,
0.00,0.48,0.45,102.20,6.16-24.15,
0.02,0.42,0.40,97.79,-27.16,
-0.01,0.56,0.33,88.41,-32.76,
-0.03,0.63,0.26,81.90,-35.91,
-0.04,0.73,0.23,80.08,-37.24,
-0.08,0.79,0.25,73.29,-43.68,
-0.15,0.83,0.27,67.41,-54.81,
-0.19,0.91,0.29,68.18,-70.42,
-0.20,1.00,0.34,76.23,-87.15,
-0.16,1.12,0.36,86.66,-94.43,
-0.10,1.16,0.33,99.19,-98.63,
0.00,1.18,0.35,107.73,-100.17,
0.13,1.12,0.35,112.00,-97.09,
0.20,1.04,0.31,110.88,-93.73,
0.26,0.94,0.27,107.45,-93.87,
0.32,0.87,0.28,103.32,-92.75,
0.33,0.83,0.27,100.66,-92.75,
0.33,0.82,0.26,96.18,-90.16,
0.29,0.80,0.23,93.66,-90.93,
0.31,0.87,0.25,90.37,-82.18,
0.28,0.90,0.25,88.90,-74.13,
0.25,0.94,0.23,88.13,-66.50,
0.19,0.98,0.20,85.75,-58.17,
0.13,0.99,0.17,82.53,-52.29,
0.08,0.97,0.15,82.95,-49.14,
0.07,0.90,0.17,81.20,-41.65,
0.07,0.84,0.15,79.31,-38.22,
0.08,0.81,0.13,77.35,-38.08,
0.05,0.78,0.12,72.10,-37.59,
0.07,0.81,0.14,65.17,-38.85,
0.06,0.78,0.15,57.54,-34.23,
0.08,0.80,0.16,51.87,-32.41,
0.02,0.79,0.17,47.53,-31.50,
-0.01,0.80,0.19,45.78,-32.83,
0.00,0.81,0.17,44.45,-37.38,
-0.03,0.78,0.13,42.63,-44.94,
-0.04,0.81,0.12,36.26,-52.85,
-0.01,0.84,0.12,29.68,-60.83,
0.03,0.91,0.12,27.23,-67.13,
0.11,0.96,0.14,23.03,-66.22,
0.17,1.00,0.15,15.82,-60.90,
0.23,1.02,0.14,9.38,-51.73,
0.26,1.02,0.15,5.46,-42.28,
0.28,1.00,0.13,5.46,-29.40,
0.30,1.01,0.09,8.68,-22.61,
0.31,0.99,0.04,7.84,-19.60,
0.32,0.95,0.06,8.47,-17.78,
0.32,0.95,0.09,10.50,-17.64,
0.28,0.93,0.11,13.93,-15.96,
0.23,0.98,0.13,15.89,-13.65,
0.19,1.06,0.14,16.17,-14.00,
0.01,1.13,0.14,14.07,-16.52,
0.08,1.19,0.16,10.85,-21.07,
0.06,1.23,0.17,5.81,-25.20,
0.05,1.25,0.16,0.28,-30.31,
0.06,1.23,0.15,-6.72,-32.62,
0.07,1.19,0.15,-10.22,-33.04,
0.04,1.23,0.16,-11.62,-28.84,
0.07,1.29,0.11,-9.94,-33.18,
0.06,1.40,0.04,-16.03,-29.40,
0.07,1.48,-0.01,-26.18,-21.07,
0.07,1.50,0.06,-31.50,2.45-12.11,
0.08,1.52,0.18,-25.48,5.25-3.08,
0.02,1.50,0.25,-19.81,5.532.94,
-0.07,1.42,0.28,-18.48,4.555.74,
-0.08,1.39,0.30,-22.05,6.092.94,
-0.15,1.37,0.29,-30.66,7.770.98,
-0.12,1.30,0.27,-41.09,8.540.28,
-0.07,1.24,0.29,-55.02,10.50-0.42,
-0.03,1.16,0.33,-70.84,14.49-0.42,
0.00,1.06,0.39,-86.17,20.860.98,
0.01,1.03,0.44,-99.33,30.104.41,
0.03,1.05,0.44,-109.90,35.988.54,
0.04,1.06,0.42,-125.30,38.8514.84,
0.07,1.05,0.37,-138.74,38.9922.33,
0.10,1.01,0.32,-146.51,36.1231.08,
0.10,0.99,0.29,-151.69,30.1742.49,
0.08,0.95,0.28,-156.24,25.2752.57,
0.07,0.94,0.30,-153.37,23.8761.32,
0.07,0.92,0.32,-141.54,25.2067.48,
0.06,0.90,0.32,-125.72,28.9172.10,
0.03,0.93,0.30,-112.91,30.8774.83,
-0.02,0.96,0.27,-101.57,31.1571.68,
-0.04,0.88,0.23,-82.81,29.7568.25,
-0.06,0.83,0.21,-64.54,30.4562.16,
-0.06,0.79,0.22,-49.35,36.5453.97,
-0.09,0.75,0.25,-40.25,43.0549.21,
-0.10,0.76,0.32,-40.32,49.4941.86,
-0.10,0.78,0.38,-47.39,49.1437.87,
-0.06,0.83,0.45,-56.91,44.5238.85,
-0.02,0.87,0.50,-67.06,37.2442.77,
0.00,0.86,0.50,-75.67,33.7449.70,
0.02,0.85,0.53,-84.21,34.7257.40,
0.00,0.77,0.51,-94.15,36.8962.44,
-0.03,0.71,0.45,-98.91,42.3564.12,
-0.04,0.70,0.39,-100.73,47.3260.97,
-0.09,0.71,0.37,-94.15,48.6553.97,
-0.08,0.65,0.35,-88.20,50.9651.10,
-0.10,0.63,0.33,-76.72,49.3544.66,
-0.07,0.60,0.32,-61.74,49.9139.62,
-0.06,0.58,0.36,-52.15,44.8037.66,
0.01,0.65,0.42,-42.35,37.0341.09,
0.02,0.66,0.49,-43.68,30.8046.13,
-0.02,0.58,0.50,-48.93,29.3348.09,
-0.04,0.54,0.51,-56.42,30.2445.57,
-0.06,0.53,0.51,-59.71,34.2344.66,
-0.04,0.49,0.52,-60.48,39.6941.44,
-0.08,0.45,0.53,-64.89,44.1038.71,
-0.07,0.42,0.51,-61.32,45.5732.69,
-0.04,0.53,0.48,-50.47,47.8122.68,
-0.01,0.43,0.50,-48.72,45.0824.64,
0.01,0.46,0.54,-45.71,42.5624.36,
0.01,0.44,0.54,-33.88,39.3424.78,
-0.02,0.46,0.58,-22.33,35.6324.22,
-0.03,0.46,0.61,-5.88,31.5724.29,
-0.05,0.44,0.64,4.62,24.7825.27,
-0.07,0.37,0.69,15.61,17.5721.98,
-0.06,0.34,0.72,27.09,12.4618.13,
-0.03,0.33,0.75,40.25,7.6312.18,
-0.01,0.36,0.78,43.68,1.336.02,
0.05,0.36,0.79,45.43,-9.452.66,
0.10,0.44,0.75,46.55,-20.020.56,
0.14,0.49,0.75,45.01,-28.910.42,
0.12,0.50,0.75,47.53,-33.95,
0.05,0.51,0.75,44.87,-34.72,
0.04,0.45,0.83,53.69,-28.701.61,
-0.01,0.86,1.33,16.59,-30.7314.07,
0.04,1.09,1.04,-16.73,-32.7623.94,
0.02,1.28,0.71,49.70,-31.6414.70,
0.07,1.71,0.88,138.04,-35.84,
-0.10,1.91,0.85,149.38,-41.86,
-0.01,1.87,0.78,94.99,-25.69,
0.08,1.17,0.65,83.02,23.87-26.32,
-0.05,0.65,0.47,104.23,28.70-26.32,
-0.07,0.53,0.41,111.79,12.18-19.39,
-0.04,0.49,0.40,103.25,-24.50,
-0.02,0.48,0.38,90.23,-37.59,
-0.02,0.57,0.31,84.63,-42.70,
-0.07,0.65,0.27,81.97,-49.63,
-0.12,0.70,0.27,76.09,-57.12,
-0.19,0.75,0.31,67.83,-70.14,
-0.18,0.87,0.36,67.13,-84.35,
-0.15,1.03,0.38,70.35,-98.56,
-0.14,1.13,0.37,78.33,-103.32,
-0.07,1.18,0.32,90.86,-106.82,
0.01,1.17,0.28,97.79,-107.73,
0.12,1.18,0.24,98.91,-105.70,
0.23,1.14,0.20,107.03,-105.98,
0.31,1.08,0.19,107.31,-103.67,
0.34,1.02,0.20,100.73,-103.11,
0.33,0.98,0.22,95.13,-99.19,
0.30,0.93,0.22,88.62,-95.27,
0.26,0.89,0.21,84.98,-90.23,
0.25,0.92,0.22,79.80,-83.72,
0.18,0.92,0.21,76.30,-77.49,
0.14,0.94,0.21,76.65,-70.21,
0.09,0.97,0.19,77.35,-60.76,
0.03,0.98,0.17,76.09,-59.43,
-0.04,0.95,0.14,76.44,-60.13,
-0.03,0.89,0.17,74.97,-59.78,
0.00,0.86,0.16,71.54,-59.92,
0.02,0.81,0.15,67.76,-59.78,
0.02,0.75,0.15,62.65,-56.14,
0.02,0.75,0.11,57.68,-52.99,
0.05,0.75,0.06,51.31,-47.95,
0.03,0.76,0.04,44.87,-44.10,
0.03,0.74,0.05,39.41,-37.45,
0.01,0.76,0.03,33.88,-33.74,
-0.04,0.79,0.04,32.69,-32.48,
-0.06,0.86,0.08,34.37,-36.61,
-0.09,0.92,0.11,34.09,-41.65,
-0.10,0.95,0.13,31.36,-47.74,
-0.07,0.98,0.15,27.93,-51.80,
0.00,1.00,0.18,21.14,-53.62,
0.06,0.95,0.17,17.36,-56.14,
0.09,0.91,0.14,17.50,-57.82,
0.15,0.92,0.10,18.55,-58.66,
0.18,0.94,0.09,14.07,-56.49,
0.20,0.94,0.10,14.21,-51.17,
0.23,0.99,0.09,11.34,-48.37,
-0.02,0.97,0.10,2.45,-1.400.07,
-0.01,0.97,0.10,2.52,-0.700.14,
-0.01,0.98,0.10,2.24,0.280.14,
0.00,0.98,0.09,2.17,0.980.42,
-0.01,0.98,0.09,2.31,1.330.63,
-0.01,0.98,0.08,2.66,1.331.26,
-0.01,0.97,0.08,2.87,1.471.19,
-0.01,0.97,0.08,2.94,1.681.33,
-0.01,0.97,0.09,2.94,2.311.40,
-0.02,0.97,0.09,3.15,2.800.91,
-0.01,0.98,0.09,3.01,2.870.42,
-0.01,0.98,0.09,2.52,2.800.35,
-0.01,0.98,0.08,2.38,2.380.35,
-0.01,0.98,0.08,2.24,2.520.21,
-0.01,0.98,0.08,2.17,2.590.56,
-0.01,0.98,0.08,2.10,2.590.77,
-0.01,0.98,0.09,2.10,2.870.91,
-0.01,0.98,0.09,2.03,3.361.47,
-0.01,0.99,0.09,1.89,3.501.54,
-0.01,0.99,0.09,1.47,3.221.19,
-0.02,0.99,0.09,1.33,2.661.26,
-0.01,0.98,0.09,1.19,2.311.40,
-0.01,0.97,0.09,1.12,2.101.40,
-0.01,0.97,0.09,1.19,2.171.40,
-0.01,0.97,0.09,1.19,2.171.40,
-0.01,0.97,0.09,1.19,1.681.40,
-0.01,0.98,0.08,1.05,1.821.61,
-0.01,0.98,0.09,1.54,1.961.47,
-0.01,0.98,0.09,1.89,2.171.40,
-0.01,0.98,0.09,1.89,2.031.33,
-0.01,0.98,0.09,1.82,1.891.68,
-0.01,0.97,0.08,1.61,2.031.47,
-0.01,0.98,0.08,1.47,2.311.61,
0.00,0.98,0.08,1.47,2.521.68,
0.00,0.98,0.08,1.54,2.731.75,
-0.01,0.98,0.08,1.47,2.591.68,
-0.01,0.98,0.09,1.47,2.311.82,
-0.01,0.98,0.09,1.40,2.451.96,
-0.01,0.98,0.09,1.54,2.452.17,
-0.01,0.98,0.09,1.61,2.312.38,
-0.02,0.98,0.09,1.47,2.172.52,
-0.02,0.98,0.09,1.47,1.892.59,
-0.02,0.98,0.09,1.26,1.612.80,
-0.01,0.98,0.09,0.91,1.682.94,
-0.01,0.98,0.09,1.05,1.682.59,
-0.01,0.98,0.09,0.84,1.402.24,
-0.01,0.98,0.08,0.70,1.542.38,
-0.01,0.98,0.08,0.70,1.962.45,
-0.01,0.98,0.08,0.63,2.312.03,
-0.01,0.98,0.08,0.70,2.801.96,
-0.02,0.98,0.09,0.77,2.732.10,
-0.02,0.98,0.09,0.56,2.312.03,
-0.02,0.97,0.09,0.77,1.962.10,
-0.02,0.98,0.08,0.70,1.612.17,
-0.02,0.97,0.08,1.19,1.332.10,
-0.01,0.98,0.09,1.47,1.401.89,
-0.01,0.98,0.09,1.26,1.471.54,
-0.01,0.98,0.09,1.05,1.331.75,
-0.01,0.98,0.09,0.84,0.841.68,
-0.01,0.98,0.08,0.70,0.071.82,
-0.01,0.97,0.09,0.42,-0.352.03,
0.00,0.97,0.09,0.49,-0.632.66,
0.00,0.99,0.10,0.28,-0.422.59,
0.01,1.00,0.10,0.35,0.073.22,
0.01,1.00,0.10,-17.92,0.213.78,
0.01,1.00,0.09,-0.07,0.214.20,
0.00,1.00,0.09,0.07,-0.284.76,
0.00,0.99,0.09,0.42,-0.915.18,
0.00,0.97,0.09,0.49,-0.985.32,
0.00,0.97,0.10,1.05,-0.705.60,
0.01,0.97,0.10,1.05,-0.355.95,
0.02,0.97,0.10,0.77,0.074.90,
0.01,0.98,0.10,0.14,0.424.83,
-0.01,0.97,0.07,-0.91,-0.355.32,
-0.01,0.95,0.08,-1.33,-0.355.81,
-0.02,0.97,0.07,-1.05,-0.496.09,
-0.02,0.98,0.07,-0.63,0.075.74,
-0.03,0.98,0.08,-0.70,0.495.53,
-0.03,0.97,0.09,-1.05,0.845.11,
-0.04,0.97,0.09,-1.47,1.403.78,
-0.03,0.97,0.10,-1.12,1.682.31,
-0.02,0.96,0.11,-0.63,1.820.00,
-0.01,0.96,0.10,0.00,1.54-1.33,
0.00,0.96,0.10,0.98,0.70-2.80,
0.01,0.97,0.09,2.59,0.21-3.36,
0.02,0.97,0.08,3.99,-3.43,
0.03,0.98,0.09,4.97,0.00-3.08,
0.03,0.99,0.08,5.81,0.00-1.82,
0.03,1.00,0.08,5.95,0.14-1.19,
0.02,1.00,0.08,5.67,0.42-0.14,
0.02,1.00,0.08,4.69,0.350.91,
0.01,1.00,0.08,3.08,0.491.96,
0.01,1.00,0.08,2.03,0.422.87,
0.01,0.99,0.08,0.77,0.213.71,
0.01,0.98,0.08,-0.28,-0.074.62,
0.01,0.98,0.08,-0.77,-0.565.11,
0.01,0.98,0.08,-1.19,-0.845.25,
0.01,0.98,0.08,-1.33,-0.845.46,
0.00,0.97,0.08,-1.47,-1.195.74,
0.00,0.98,0.07,-1.54,-1.125.46,
-0.01,0.98,0.07,-1.75,-1.195.25,
0.00,0.98,0.07,-2.03,-0.704.41,
-0.01,0.98,0.08,-1.96,0.073.15,
-0.01,0.97,0.08,-1.75,0.842.80,
-0.01,0.97,0.08,-1.47,1.262.31,
-0.01,0.98,0.07,-1.54,1.891.68,
0.00,0.98,0.07,-1.40,2.521.19,
0.00,0.98,0.07,-1.26,2.661.40,
0.00,0.98,0.08,-0.77,2.381.12,
0.00,0.99,0.07,-1.40,1.821.19,
0.00,0.98,0.08,-1.54,1.331.05,
0.01,0.97,0.08,-0.98,1.401.05,
0.00,0.98,0.08,-0.63,1.681.12,
0.00,0.98,0.08,-0.63,1.681.26,
0.00,0.98,0.08,-0.63,0.981.19,
0.00,0.97,0.09,-0.63,0.490.91,
0.00,0.98,0.11,-0.07,0.421.05,
0.00,0.99,0.10,-0.49,0.001.40,
-0.01,1.00,0.08,-2.24,-0.421.61,
-0.01,0.99,0.07,-2.45,-0.981.54,
-0.01,0.98,0.08,-2.80,-1.401.82,
0.00,0.96,0.10,-2.52,-1.191.54,
0.00,0.96,0.12,-1.89,17.641.75,
-0.01,0.98,0.11,-2.31,0.002.24,
0.00,0.98,0.09,-2.52,-0.421.82,
0.00,0.98,0.09,-2.38,-0.701.54,
0.00,0.97,0.10,-3.43,-1.191.61,
0.01,0.97,0.10,-3.85,-1.051.33,
0.01,0.97,0.10,-4.06,-0.281.82,
0.02,0.97,0.11,-4.13,0.701.96,
0.03,0.97,0.11,-4.20,1.261.54,
0.03,0.97,0.12,-3.85,1.541.33,
0.03,0.97,0.12,-3.43,1.541.40,
0.03,0.97,0.12,-3.36,1.471.54,
0.03,0.97,0.12,-3.15,1.331.54,
0.03,0.98,0.12,-2.45,1.402.31,
0.02,0.97,0.12,-1.96,1.122.17,
0.02,0.98,0.12,-1.12,0.562.45,
0.02,0.98,0.12,-0.35,0.282.66,
0.01,0.98,0.12,-0.07,0.282.38,
0.01,0.98,0.12,0.49,0.702.45,
0.01,0.97,0.12,1.12,0.561.96,
0.00,0.97,0.11,0.98,0.561.47,
-0.01,0.97,0.11,1.26,-0.211.82,
-0.01,0.97,0.11,1.54,-1.261.54,
-0.01,0.97,0.11,1.75,-2.031.40,
-0.01,0.97,0.12,1.96,-2.661.19,
-0.01,0.98,0.12,2.31,-2.871.33,
0.00,0.98,0.12,2.03,-3.290.91,
0.01,0.98,0.11,1.54,-3.920.91,
0.00,0.98,0.11,1.54,-4.761.12,
0.00,0.97,0.10,1.40,-5.390.91,
0.01,0.97,0.11,1.61,-5.461.05,
0.02,0.97,0.11,2.24,-5.601.12,
0.02,0.97,0.11,2.38,-5.671.12,
0.02,0.98,0.11,2.31,-5.670.84,
0.02,0.98,0.11,2.52,-5.740.98,
0.02,0.98,0.11,2.38,-5.741.12,
0.02,0.98,0.11,2.17,-5.811.05,
0.02,0.98,0.11,1.96,-5.671.05,
0.02,0.97,0.11,1.89,-5.041.12,
0.02,0.97,0.11,1.96,-4.621.12,
0.02,0.97,0.11,1.82,-4.201.19,
0.02,0.97,0.10,2.03,-4.131.05,
0.02,0.98,0.10,2.17,-3.780.98,
0.02,0.98,0.11,1.82,-3.500.91,
0.02,0.98,0.11,1.54,-3.010.98,
0.02,0.97,0.11,1.40,-2.660.84,
0.02,0.98,0.11,1.12,-2.451.19,
0.02,0.98,0.11,0.91,-2.381.61,
0.02,0.98,0.11,0.63,-2.451.54,
0.02,0.98,0.11,0.77,-2.591.47,
0.02,0.98,0.10,0.91,-2.731.54,
0.02,0.98,0.11,0.84,-2.731.61,
0.01,0.98,0.10,0.98,-2.521.54,
0.01,0.97,0.10,1.33,-2.311.40,
0.01,0.97,0.10,1.54,-2.311.19,
0.00,0.98,0.10,1.61,-2.731.05,
0.00,0.98,0.10,1.26,-2.870.98,
0.00,0.98,0.10,0.98,-3.080.56,
0.01,0.98,0.11,0.56,-3.010.77,
0.01,0.98,0.11,0.28,-2.450.56,
0.02,0.98,0.11,0.14,-2.240.42,
0.02,0.98,0.11,0.35,-2.520.28,
0.02,0.98,0.10,0.77,-3.080.77,
0.02,0.98,0.10,1.40,-3.430.91,
0.02,0.97,0.09,2.10,-3.990.98,
0.02,0.97,0.10,2.66,-4.341.33,
0.02,0.97,0.10,2.94,-4.410.98,
0.02,0.97,0.10,3.01,-4.270.63,
0.01,0.98,0.10,2.87,-4.060.56,
0.02,0.98,0.10,2.59,-3.920.14,
0.02,0.98,0.11,1.89,-21.70,
0.02,0.98,0.10,1.26,-3.640.21,
0.02,0.98,0.10,1.05,-3.500.56,
0.03,0.98,0.11,0.98,-3.080.77,
0.03,0.98,0.10,0.42,-2.731.33,
0.03,0.98,0.11,0.14,-2.451.54,
0.02,0.98,0.11,0.07,-2.102.03,
0.02,0.97,0.11,-0.07,-1.682.31,
0.02,0.97,0.11,0.14,-1.401.75,
0.02,0.98,0.11,0.49,-1.121.82,
0.02,0.97,0.10,0.98,-0.981.82,
0.02,0.97,0.10,1.75,-0.491.47,
0.02,0.98,0.11,1.82,-0.141.26,
0.02,0.98,0.10,1.82,0.211.54,
0.01,0.97,0.10,1.33,0.561.61,
0.01,0.97,0.11,1.47,0.771.26,
0.01,0.98,0.11,1.26,0.841.33,
0.01,0.98,0.10,1.26,0.631.26,
0.01,0.98,0.11,1.05,0.840.70,
0.01,0.98,0.10,1.05,0.630.84,
0.01,0.97,0.10,0.98,0.350.49,
0.01,0.98,0.10,1.12,0.000.14,
0.01,0.98,0.10,0.91,-0.420.35,
0.01,0.98,0.10,0.84,-0.490.28,
0.01,0.98,0.11,0.84,-0.490.21,
0.02,0.98,0.11,0.98,-0.630.42,
0.02,0.97,0.10,0.91,-0.700.49,
0.02,0.98,0.10,1.05,-1.050.14,
0.02,0.97,0.10,0.98,-1.051.05,
0.02,0.98,0.10,1.26,-0.911.05,
0.02,0.98,0.10,1.12,-0.700.98,
0.02,0.98,0.10,1.26,-0.630.91,
0.03,0.97,0.10,1.47,-0.350.77,
0.02,0.98,0.10,1.54,-0.280.91,
0.02,0.98,0.11,1.40,0.000.49,
0.02,0.98,0.11,1.19,0.210.91,
0.01,0.97,0.10,1.19,0.000.98,
0.02,0.97,0.10,1.47,-0.140.63,
0.02,0.98,0.11,1.61,0.000.70,
0.02,0.98,0.10,1.47,0.000.70,
0.02,0.98,0.10,1.40,-0.070.35,
0.03,0.97,0.11,1.61,-0.350.28,
0.03,0.97,0.10,1.68,-0.280.21,
0.03,0.97,0.10,1.54,0.000.07,
0.02,0.97,0.11,1.61,0.630.21,
0.03,0.97,0.11,1.61,0.840.21,
0.03,0.98,0.10,1.82,0.700.28,
0.02,0.98,0.11,1.75,0.910.70,
0.02,0.98,0.10,1.54,0.910.63,
0.02,0.98,0.10,1.40,0.980.84,
0.01,0.98,0.10,1.47,1.121.12,
0.01,0.98,0.10,1.40,0.841.12,
0.01,0.98,0.10,1.47,0.630.91,
0.01,0.98,0.10,1.47,0.561.26,
0.01,0.98,0.10,1.19,0.561.26,
0.01,0.98,0.10,0.91,0.840.91,
0.01,0.98,0.10,0.98,0.841.05,
0.01,0.97,0.10,0.98,0.911.33,
0.01,0.98,0.10,0.91,0.631.40,
0.01,0.98,0.10,0.91,0.561.05,
0.01,0.97,0.10,0.98,0.561.12,
0.01,0.97,0.10,0.98,1.051.12,
0.01,0.97,0.10,0.98,1.470.70,
0.01,0.97,0.09,0.98,1.470.91,
0.00,0.97,0.10,1.05,1.610.70,
0.00,0.97,0.10,1.19,1.750.35,
0.00,0.98,0.10,0.98,1.750.49,
0.00,0.98,0.10,1.12,1.680.35,
0.00,0.98,0.10,1.40,1.470.63,
0.00,0.98,0.10,1.54,1.260.63,
0.00,0.98,0.10,1.40,1.190.70,
0.00,0.98,0.10,1.40,0.910.84,
0.01,0.98,0.10,1.12,0.700.77,
0.01,0.98,0.10,1.12,0.700.77,
0.00,0.97,0.10,1.19,0.630.70,
0.01,0.97,0.10,1.12,0.420.70,
0.01,0.98,0.10,1.54,0.420.77,
0.00,0.98,0.10,1.68,0.350.63,
0.00,0.98,0.10,1.61,0.210.63,
0.01,0.97,0.10,1.68,0.350.42,
0.01,0.98,0.10,1.61,0.490.56,
0.01,0.98,0.10,1.54,0.420.77,
0.01,0.98,0.10,1.68,0.490.56,
0.01,0.98,0.10,1.89,-0.070.42,
0.01,0.97,0.09,1.54,-0.070.42,
0.01,0.97,0.10,2.03,-0.070.14,
0.00,0.97,0.10,2.17,-0.140.14,
0.00,0.97,0.09,2.10,-0.210.63,
0.00,0.98,0.10,2.03,-0.420.56,
0.01,0.98,0.09,2.24,-0.420.70,
0.01,0.98,0.09,2.17,-0.420.70,
0.00,0.98,0.10,1.96,-0.770.70,
0.00,0.98,0.10,1.75,-0.840.56,
0.00,0.98,0.10,1.47,-0.770.70,
0.00,0.98,0.10,1.26,-1.051.05,
0.00,0.98,0.10,1.05,-1.331.12,
0.00,0.98,0.09,0.98,-1.471.19,
0.01,0.97,0.10,1.12,-1.541.12,
0.01,0.97,0.10,1.40,-1.751.12,
0.01,0.97,0.10,1.68,-1.751.12,
0.01,0.98,0.10,1.75,-1.470.70,
0.01,0.98,0.10,1.68,-1.050.91,
0.01,0.98,0.10,1.54,-0.911.12,
0.01,0.98,0.09,1.54,-0.981.12,
0.01,0.98,0.09,1.82,-1.120.98,
0.01,0.98,0.09,1.82,-1.051.47,
0.01,0.98,0.09,1.75,-1.051.12,
0.01,0.97,0.09,1.61,-0.980.77,
0.01,0.97,0.10,1.82,-0.910.84,
0.01,0.98,0.10,1.68,-0.701.05,
0.01,0.98,0.10,1.75,-0.770.70,
0.01,0.98,0.10,1.75,-0.980.84,
0.01,0.98,0.09,1.54,-0.980.70,
0.01,0.98,0.10,1.54,-0.841.19,
0.01,0.98,0.09,1.61,-0.980.91,
0.01,0.98,0.09,1.54,-0.841.26,
0.01,0.98,0.09,1.61,-0.631.12,
0.01,0.98,0.09,1.61,-0.561.40,
0.01,0.98,0.09,1.40,-0.351.19,
0.00,0.98,0.09,1.19,-0.561.19,
0.00,0.98,0.09,1.12,-0.840.98,
0.00,0.97,0.09,1.26,-1.261.54,
0.00,0.97,0.09,1.54,-1.401.19,
0.00,0.98,0.09,1.82,-1.541.33,
0.01,0.98,0.09,1.47,-1.681.26,
0.01,0.98,0.09,1.54,-1.680.98,
0.01,0.98,0.09,1.26,-1.540.91,
0.00,0.98,0.09,1.54,-1.401.19,
0.00,0.98,0.09,2.03,-1.540.70,
0.00,0.98,0.09,1.89,-1.610.91,
0.00,0.97,0.09,2.03,-1.820.84,
0.00,0.97,0.08,2.38,-1.820.70,
0.00,0.97,0.09,2.52,-1.610.77,
0.01,0.98,0.09,2.24,-1.400.63,
0.00,0.98,0.09,2.10,-1.330.63,
0.00,0.98,0.09,2.17,-1.400.42,
0.00,0.98,0.09,2.10,-1.680.70,
0.00,0.98,0.09,1.96,-1.820.63,
0.00,0.98,0.09,1.82,-2.170.49,
0.01,0.98,0.09,1.68,-2.100.77,
0.01,0.98,0.09,1.61,-2.030.70,
0.01,0.98,0.09,1.33,-2.030.49,
0.01,0.98,0.09,0.91,-1.961.05,
0.01,0.98,0.09,1.12,-1.890.70,
0.01,0.98,0.09,1.12,-1.961.05,
0.01,0.98,0.09,1.19,-1.961.12,
0.02,0.98,0.09,1.33,-1.821.26,
0.01,0.97,0.09,1.54,-1.821.12,
0.01,0.98,0.09,1.47,-1.611.12,
0.01,0.98,0.09,1.47,-1.190.91,
0.01,0.98,0.09,1.26,-0.770.98,
0.01,0.98,0.09,1.05,-0.421.12,
0.01,0.99,0.09,0.91,-0.351.26,
0.01,0.99,0.09,0.63,-0.561.26,
0.00,0.98,0.09,0.28,-0.491.40,
0.00,0.98,0.09,0.14,-0.421.75,
0.00,0.97,0.09,0.21,-0.491.82,
0.00,0.97,0.08,0.63,-0.631.82,
0.00,0.98,0.09,0.70,-0.701.68,
0.01,0.98,0.09,0.91,-0.351.26,
0.01,0.98,0.08,1.12,-0.491.26,
0.01,0.98,0.09,0.77,-0.140.98,
0.01,0.98,0.09,0.56,0.211.05,
0.01,0.98,0.08,0.49,0.561.05,
0.01,0.98,0.08,0.42,0.561.26,
0.01,0.98,0.08,0.49,0.631.26,
0.01,0.98,0.08,0.56,0.281.33,
0.01,0.98,0.08,0.63,0.141.33,
0.01,0.97,0.09,0.56,0.071.33,
0.01,0.97,0.09,0.56,0.071.33,
0.01,0.97,0.09,0.63,0.491.05,
0.01,0.98,0.09,0.77,0.560.91,
0.01,0.98,0.09,0.77,0.490.98,
0.01,0.98,0.09,0.77,0.421.12,
0.02,0.98,0.09,0.77,0.491.12,
0.02,0.98,0.09,0.84,0.911.19,
0.01,0.98,0.09,0.84,1.191.54,
0.01,0.98,0.08,0.70,1.191.54,
0.01,0.98,0.09,0.56,1.471.68,
0.01,0.98,0.09,0.35,1.401.89,
0.00,0.98,0.09,0.07,1.541.68,
0.01,0.98,0.09,0.21,1.401.75,
0.00,0.98,0.09,0.28,1.191.82,
0.00,0.98,0.09,0.42,0.981.82,
0.00,0.98,0.09,0.42,0.771.68,
0.01,0.98,0.09,0.49,0.281.89,
0.01,0.98,0.09,0.42,0.351.68,
0.01,0.98,0.09,0.42,0.491.40,
0.01,0.98,0.09,0.28,0.421.40,
0.01,0.98,0.09,0.28,0.491.19,
0.01,0.98,0.09,0.42,0.561.05,
0.01,0.97,0.09,0.42,0.420.84,
0.01,0.98,0.09,0.56,0.421.05,
0.01,0.98,0.09,0.63,0.420.84,
0.01,0.98,0.10,0.77,0.281.19,
0.01,0.98,0.10,0.70,0.351.12,
0.01,0.98,0.09,0.56,0.421.05,
0.01,0.98,0.09,0.63,0.351.19,
0.01,0.98,0.09,0.56,0.421.33,
0.01,0.98,0.09,0.63,0.420.98,
0.01,0.98,0.09,0.56,0.490.98,
0.01,0.98,0.09,0.42,0.351.05,
0.01,0.98,0.09,0.35,0.281.12,
0.01,0.98,0.09,0.49,0.281.26,
0.01,0.98,0.10,0.49,0.071.19,
0.00,0.98,0.10,0.35,0.001.26,
0.01,0.98,0.10,0.21,-0.211.33,
0.01,0.98,0.10,0.21,-0.071.33,
0.01,0.98,0.09,0.28,0.001.12,
0.01,0.98,0.09,0.28,-0.420.98,
0.01,0.98,0.10,0.35,-0.841.26,
0.01,0.97,0.10,0.28,-0.980.91,
0.01,0.97,0.10,0.49,-0.630.98,
0.01,0.97,0.10,0.91,-0.701.12,
0.01,0.98,0.09,0.98,-0.491.05,
0.01,0.98,0.09,0.84,-0.561.05,
0.01,0.98,0.09,0.91,-0.561.40,
0.01,0.98,0.09,0.77,-0.630.98,
0.01,0.98,0.09,0.70,-0.771.05,
0.01,0.98,0.09,0.70,-0.841.19,
0.01,0.98,0.09,0.84,-0.911.26,
0.01,0.98,0.10,0.77,-0.840.91,
0.01,0.98,0.10,0.56,-0.771.19,
0.01,0.98,0.09,0.49,-0.560.77,
0.01,0.98,0.09,0.70,-0.911.26,
0.01,0.98,0.09,0.63,-0.770.91,
0.01,0.97,0.09,0.77,-0.630.98,
0.01,0.98,0.09,0.98,-0.630.98,
0.02,0.97,0.09,1.05,-0.420.91,
0.01,0.98,0.09,0.98,-0.210.63,
0.01,0.98,0.10,0.84,-0.140.77,
0.01,0.98,0.09,0.56,-0.070.70,
0.01,0.97,0.10,0.63,0.000.42,
0.01,0.97,0.10,0.84,0.000.56,
0.01,0.98,0.10,0.98,-0.140.70,
0.01,0.98,0.10,1.26,-0.210.91,
0.02,0.98,0.10,1.19,-0.560.63,
0.01,0.98,0.09,1.05,-0.630.84,
0.01,0.98,0.09,1.19,-0.420.84,
0.01,0.98,0.09,0.98,-0.070.70,
0.01,0.97,0.09,0.77,0.140.98,
0.01,0.98,0.09,0.63,0.280.77,
0.01,0.98,0.09,0.49,0.350.98,
0.01,0.98,0.10,0.56,0.211.12,
0.01,0.98,0.09,0.70,0.281.12,
0.01,0.98,0.09,0.91,0.211.05,
0.01,0.98,0.10,0.84,-0.141.40,
0.01,0.98,0.09,0.84,-0.071.26,
0.00,0.97,0.09,0.91,-0.350.91,
0.00,0.97,0.09,0.98,-0.490.98,
0.01,0.98,0.10,1.12,-0.490.77,
0.01,0.98,0.10,1.05,-0.490.28,
0.01,0.98,0.09,1.05,-0.630.35,
0.01,0.98,0.09,0.77,-0.700.21,
0.01,0.98,0.09,0.70,-0.560.07,
0.01,0.98,0.10,0.98,-0.630.00,
0.01,0.98,0.09,0.98,-0.630.28,
0.02,0.97,0.09,1.19,-0.630.42,
0.01,0.98,0.09,1.33,-0.840.49,
0.01,0.98,0.09,1.54,-0.840.91,
0.01,0.98,0.09,1.54,-0.770.70,
0.01,0.98,0.09,1.82,-0.700.98,
0.01,0.98,0.09,1.47,-0.350.70,
0.01,0.98,0.09,1.33,-0.351.05,
0.01,0.98,0.09,1.33,-0.350.98,
0.01,0.98,0.09,1.12,-0.280.98,
0.01,0.98,0.09,1.05,-0.420.91,
0.01,0.98,0.09,1.19,-0.421.12,
0.01,0.97,0.09,1.19,-0.491.26,
0.01,0.98,0.09,1.26,-0.561.05,
0.01,0.98,0.10,1.26,-0.421.26,
0.01,0.98,0.09,0.98,-0.351.19,
0.01,0.98,0.09,0.84,-0.281.12,
0.01,0.98,0.09,0.77,17.851.33,
0.00,0.98,0.09,0.77,0.001.40,
0.00,0.98,0.09,0.98,-0.281.19,
0.00,0.98,0.09,1.05,-0.421.26,
0.00,0.98,0.09,1.26,-0.421.19,
0.00,0.97,0.09,1.33,-0.770.98,
0.00,0.98,0.09,1.40,-0.560.91,
0.00,0.98,0.09,1.40,-0.281.05,
0.00,0.98,0.09,1.12,-0.420.77,
0.00,0.98,0.09,0.98,-0.490.70,
0.00,0.98,0.09,0.98,-0.630.77,
0.00,0.98,0.09,1.05,-0.840.63,
0.00,0.98,0.09,1.12,-0.980.91,
0.00,0.98,0.09,1.12,-0.980.84,
0.00,0.98,0.09,1.12,-1.050.91,
0.00,0.98,0.09,1.19,-0.980.91,
0.00,0.98,0.09,1.19,-1.190.56,
0.00,0.98,0.09,0.84,-1.400.84,
0.00,0.97,0.09,1.19,-1.610.49,
0.00,0.97,0.09,1.33,-1.890.91,
0.00,0.98,0.09,1.26,-1.960.84,
0.00,0.98,0.09,1.19,-1.960.77,
0.00,0.98,0.09,1.05,-2.030.63,
0.00,0.98,0.09,0.98,-2.100.77,
0.00,0.97,0.09,0.91,-1.890.91,
0.00,0.98,0.10,1.19,-1.750.49,
0.00,0.98,0.09,1.33,-1.890.77,
0.00,0.98,0.09,1.19,-1.890.77,
0.01,0.98,0.09,1.33,-1.960.84,
0.01,0.98,0.09,1.12,-1.820.70,
0.01,0.98,0.09,1.19,-1.750.91,
0.01,0.98,0.09,1.26,-1.610.91,
0.01,0.98,0.09,1.26,-1.471.40,
0.01,0.98,0.09,1.26,-1.121.05,
0.01,0.98,0.09,1.26,-1.261.05,
0.01,0.98,0.10,1.26,-1.190.98,
0.01,0.98,0.10,1.33,-0.911.05,
0.00,0.98,0.09,1.33,-0.981.26,
0.01,0.97,0.09,1.61,-0.770.98,
0.01,0.97,0.09,1.54,-0.421.19,
0.01,0.98,0.09,1.40,-0.281.12,
0.01,0.98,0.09,1.19,0.001.05,
0.01,0.98,0.09,1.33,-0.140.84,
0.01,0.98,0.09,1.05,-0.071.33,
0.01,0.98,0.09,1.12,-0.071.19,
0.01,0.98,0.09,1.26,-0.071.05,
0.01,0.98,0.09,1.47,-0.210.91,
0.01,0.98,0.09,1.40,-0.071.19,
0.01,0.98,0.09,1.54,-0.141.12,
0.01,0.98,0.09,1.68,0.000.91,
0.01,0.98,0.09,1.54,0.140.98,
0.01,0.98,0.09,1.40,0.071.12,
0.01,0.98,0.09,1.12,0.421.05,
0.01,0.98,0.09,1.05,0.491.40,
0.01,0.98,0.09,0.70,0.351.68,
0.01,0.98,0.09,0.84,0.421.54,
0.01,0.97,0.09,1.12,0.071.61,
0.01,0.97,0.09,1.54,-0.211.89,
0.01,0.98,0.09,1.61,-0.141.75,
0.01,0.98,0.09,1.61,-0.211.82,
0.01,0.98,0.09,1.47,0.211.68,
0.01,0.98,0.09,0.98,0.421.19,
0.00,0.97,0.09,0.91,0.491.33,
0.01,0.98,0.08,0.98,0.421.54,
0.01,0.98,0.08,1.12,0.210.91,
0.01,0.98,0.08,1.26,-0.071.12,
0.01,0.98,0.09,1.19,-0.281.33,
0.01,0.98,0.09,1.12,-0.141.12,
0.01,0.98,0.09,1.40,0.281.05,
0.01,0.98,0.09,1.47,0.351.12,
0.01,0.98,0.08,1.47,0.071.12,
0.01,0.97,0.08,1.54,-0.141.40,
0.01,0.98,0.08,1.61,-0.211.05,
0.01,0.98,0.08,1.47,0.141.47,
0.01,0.98,0.09,0.98,0.421.33,
0.01,0.98,0.09,0.84,0.351.61,
0.01,0.98,0.09,0.63,0.351.82,
0.00,0.98,0.08,0.42,0.141.96,
0.00,0.98,0.08,0.56,-0.072.03,
0.00,0.98,0.08,0.56,-0.421.96,
0.00,0.98,0.08,0.77,-0.491.96,
0.00,0.98,0.08,0.70,-0.491.89,
0.00,0.98,0.09,0.49,-0.211.68,
0.01,0.98,0.08,0.21,-0.071.47,
0.01,0.98,0.09,0.07,0.351.40,
0.01,0.98,0.08,0.07,0.281.54,
0.01,0.98,0.08,0.07,0.211.33,
0.01,0.97,0.08,0.49,0.141.61,
0.01,0.97,0.08,0.49,0.141.68,
0.01,0.97,0.08,0.70,0.351.82,
0.01,0.98,0.08,0.63,0.351.54,
0.00,0.98,0.09,0.56,0.421.61,
0.00,0.98,0.09,0.56,0.421.12,
0.01,0.98,0.09,0.42,0.421.12,
0.01,0.98,0.09,0.42,0.281.19,
0.01,0.98,0.09,0.42,0.281.12,
0.01,0.98,0.08,0.21,0.421.61,
0.01,0.98,0.09,0.42,0.491.33,
0.01,0.98,0.09,0.42,0.561.68,
0.01,0.98,0.08,0.42,0.701.47,
0.01,0.98,0.09,0.49,0.701.61,
0.00,0.98,0.09,0.49,0.841.47,
0.00,0.98,0.09,0.42,0.841.40,
0.00,0.98,0.09,0.49,0.631.19,
0.00,0.98,0.09,0.49,0.350.98,
0.00,0.98,0.09,0.49,0.071.26,
0.00,0.98,0.09,0.56,-0.211.40,
0.00,0.98,0.09,0.42,-0.211.26,
0.01,0.98,0.09,0.35,-0.421.05,
0.01,0.98,0.09,0.49,-0.630.91,
0.01,0.98,0.09,0.21,-0.700.49,
0.01,0.98,0.09,0.14,-0.560.77,
0.01,0.97,0.09,0.35,-0.280.63,
0.01,0.97,0.09,0.63,-0.420.70,
0.01,0.97,0.09,0.77,-0.560.77,
0.01,0.98,0.09,0.91,-0.420.63,
0.01,0.98,0.09,0.84,-0.280.70,
0.01,0.98,0.09,0.98,-0.070.63,
0.01,0.98,0.09,0.84,-0.071.05,
0.01,0.98,0.09,0.63,-0.211.05,
0.01,0.98,0.09,0.56,-0.211.12,
0.01,0.98,0.09,0.56,-0.351.33,
0.01,0.98,0.09,0.49,-0.631.47,
0.01,0.97,0.09,0.56,-0.560.70,
0.01,0.97,0.10,0.56,-0.491.19,
0.01,0.97,0.09,0.70,-0.210.98,
0.01,0.97,0.09,0.77,-0.350.84,
0.01,0.98,0.09,0.56,-0.350.91,
0.01,0.98,0.09,0.56,-0.280.91,
0.01,0.98,0.09,0.49,-0.280.84,
0.02,0.98,0.09,0.42,-0.071.05,
0.01,0.98,0.09,0.42,-17.920.98,
0.01,0.97,0.09,0.56,-0.070.56,
