aX,aY,aZ,gX,gY,gZ
-0.02,0.86,0.49,1.12,-0.141.47,
-0.02,0.86,0.49,1.19,-0.771.12,
-0.03,0.86,0.49,1.19,-1.470.77,
-0.03,0.86,0.49,1.19,-2.030.84,
-0.03,0.85,0.49,1.05,-2.870.07,
-0.02,0.85,0.49,1.12,-2.940.91,
-0.01,0.84,0.49,1.19,-2.591.26,
-0.01,0.85,0.5,1.12,-2.031.19,
-0.01,0.85,0.5,0.98,-0.911.61,
-0.01,0.86,0.49,0.91,-0.141.89,
-0.02,0.86,0.49,0.98,0.561.40,
-0.02,0.86,0.49,1.19,0.911.33,
-0.03,0.86,0.48,1.54,0.911.61,
-0.03,0.85,0.48,1.54,0.561.40,
-0.03,0.86,0.49,1.75,0.070.98,
-0.02,0.87,0.48,1.19,-0.140.14,
-0.01,0.87,0.49,0.84,-1.12,
0,0.86,0.49,0.49,-1.75,
-0.01,0.85,0.49,0.49,-2.1,
-0.02,0.84,0.48,0.35,-1.75,
-0.02,0.83,0.47,0.21,-1.260.56,
-0.02,0.83,0.47,0.07,-1.541.26,
0,0.83,0.48,0.63,-1.471.05,
0,0.84,0.48,1.33,-1.750.77,
0,0.85,0.48,2.17,-1.960.00,
-0.01,0.86,0.48,2.45,-2.170.14,
-0.01,0.86,0.48,2.8,-2.730.00,
-0.01,0.87,0.48,2.73,-3.360.07,
-0.01,0.87,0.48,2.38,-4.060.07,
0,0.88,0.49,2.03,-5.040.00,
0,0.88,0.48,1.68,-5.530.28,
0,0.87,0.49,1.19,-6.020.28,
0,0.86,0.48,0.21,-5.740.42,
0,0.85,0.48,-0.28,-5.180.63,
-0.01,0.84,0.48,-0.42,-4.480.77,
-0.01,0.83,0.49,-0.14,-3.781.05,
-0.01,0.83,0.49,0.49,-2.871.40,
-0.01,0.83,0.5,1.47,-2.171.26,
-0.01,0.84,0.51,2.03,-1.611.05,
-0.01,0.86,0.51,2.66,-1.120.77,
-0.01,0.87,0.5,2.59,-1.261.26,
-0.02,0.87,0.5,2.17,-1.751.26,
-0.02,0.87,0.49,1.61,-2.241.40,
-0.02,0.87,0.49,0.77,-2.591.05,
-0.01,0.86,0.49,0.42,-2.661.12,
0,0.85,0.49,0.28,-2.310.56,
0,0.85,0.49,0.56,-2.100.28,
0,0.85,0.5,1.12,-1.75,
0,0.85,0.5,1.05,-1.260.14,
0,0.85,0.5,1.12,-1.26,
0,0.85,0.5,1.12,-1.05,
-0.01,0.85,0.49,1.47,-0.700.63,
-0.01,0.85,0.49,1.47,-0.140.63,
-0.01,0.85,0.49,1.75,0.000.91,
-0.01,0.85,0.49,1.68,0.421.19,
-0.01,0.85,0.48,1.61,0.980.98,
0,0.85,0.49,1.89,1.330.28,
0,0.85,0.5,2.24,1.960.28,
0,0.85,0.5,3.15,2.170.00,
-0.01,0.86,0.5,3.57,1.68-0.35,
-0.01,0.86,0.5,3.36,1.19-0.14,
-0.01,0.87,0.5,3.01,0.98-0.21,
-0.01,0.87,0.49,2.17,1.190.35,
-0.01,0.87,0.49,1.54,1.750.56,
-0.01,0.87,0.48,0.84,2.171.40,
-0.01,0.87,0.48,-0.07,2.311.54,
-0.01,0.86,0.47,-0.63,2.311.82,
-0.02,0.85,0.47,-0.7,1.892.31,
-0.02,0.85,0.47,-0.49,1.472.03,
-0.02,0.85,0.47,-0.28,0.842.45,
-0.02,0.85,0.47,-0.35,-0.421.75,
-0.02,0.86,0.47,-0.07,-1.191.54,
-0.02,0.86,0.47,0.07,-2.171.54,
-0.02,0.86,0.47,0,-2.731.40,
-0.02,0.85,0.48,0,-2.941.33,
-0.01,0.85,0.48,0.21,-2.941.61,
-0.01,0.85,0.48,0.28,-2.730.91,
0,0.85,0.49,0.49,-2.590.84,
0,0.85,0.49,0.91,-2.240.35,
0,0.86,0.49,1.33,-2.1,
0,0.86,0.49,1.61,-2.17,
0,0.86,0.49,1.82,-1.54,
0,0.85,0.5,1.96,-1.33,
-0.01,0.86,0.49,1.96,-0.7,
-0.01,0.85,0.49,1.89,-0.35,
-0.01,0.85,0.5,2.03,0.00-0.07,
-0.01,0.85,0.5,2.17,0.14-0.07,
-0.01,0.85,0.5,2.17,0.42-0.21,
-0.01,0.86,0.5,1.96,0.630.07,
0,0.85,0.51,1.75,1.12-0.42,
0,0.86,0.51,1.75,1.400.14,
0,0.86,0.51,1.54,1.820.28,
-0.01,0.86,0.5,1.26,2.030.21,
-0.01,0.86,0.49,0.77,1.890.28,
-0.02,0.86,0.49,0.42,1.680.28,
-0.03,0.85,0.48,0.14,1.260.42,
-0.03,0.85,0.48,0,0.560.56,
-0.03,0.85,0.48,0.07,0.070.42,
-0.02,0.85,0.48,0.21,-0.350.21,
-0.01,0.85,0.48,0.28,-0.630.35,
-0.01,0.85,0.49,0.77,-18.76,
0,0.86,0.49,0.98,-1.120.28,
-0.01,0.87,0.49,1.19,-1.260.56,
-0.01,0.87,0.49,1.05,-1.400.07,
-0.01,0.87,0.49,0.42,-1.470.42,
-0.01,0.86,0.48,0.21,-1.330.63,
-0.01,0.86,0.48,0.21,-0.980.49,
-0.01,0.85,0.48,0,-0.910.49,
-0.01,0.84,0.48,0.21,-0.421.05,
-0.01,0.84,0.48,0.7,0.630.21,
-0.01,0.85,0.48,0.98,1.050.00,
0,0.85,0.48,0.98,1.40-0.21,
0,0.85,0.48,0.98,1.61-0.77,
-0.01,0.86,0.48,0.77,1.40-0.91,
-0.02,0.86,0.48,0.77,0.77-1.19,
-0.02,0.85,0.47,0.42,-1.47,
-0.02,0.85,0.48,0.56,-1.54,
-0.02,0.85,0.49,0.56,-1.89,
-0.01,0.85,0.49,0.7,0.14-1.05,
0,0.85,0.5,0.84,0.98-0.91,
0.01,0.86,0.51,1.26,2.24-0.63,
0.01,0.86,0.51,1.82,3.43-0.14,
0,0.87,0.5,2.31,4.130.42,
-0.01,0.88,0.49,2.38,3.990.35,
-0.01,0.88,0.49,2.38,4.130.56,
-0.03,0.87,0.48,2.45,3.641.12,
-0.04,0.86,0.49,2.66,3.430.91,
-0.03,0.85,0.49,2.59,3.430.84,
-0.03,0.85,0.49,2.73,3.430.42,
-0.03,0.84,0.49,2.73,3.990.00,
-0.03,0.84,0.49,2.73,4.270.14,
-0.03,0.84,0.49,2.8,4.62-0.35,
-0.04,0.85,0.49,2.8,5.11-0.07,
-0.04,0.86,0.49,2.66,5.25-0.21,
-0.05,0.86,0.48,2.38,5.460.14,
-0.05,0.85,0.48,2.1,5.320.28,
-0.04,0.85,0.49,2.17,5.040.28,
-0.04,0.85,0.49,2.1,5.040.63,
-0.03,0.85,0.49,2.1,5.040.70,
-0.03,0.85,0.5,2.24,5.040.70,
-0.03,0.85,0.5,2.31,5.04-0.07,
-0.03,0.86,0.5,2.03,4.830.21,
-0.03,0.86,0.5,1.89,4.410.21,
-0.03,0.85,0.5,1.75,4.270.35,
-0.03,0.85,0.49,1.68,4.060.98,
-0.02,0.86,0.5,1.54,4.131.47,
-0.03,0.86,0.5,1.54,4.061.82,
-0.03,0.86,0.5,1.4,3.922.38,
-0.03,0.86,0.5,1.12,4.132.73,
-0.03,0.86,0.5,0.91,4.272.73,
-0.03,0.86,0.49,0.7,4.483.08,
-0.03,0.86,0.49,0.63,4.902.80,
-0.03,0.86,0.49,0.49,5.532.87,
-0.03,0.85,0.49,0.21,6.092.94,
-0.02,0.85,0.48,-0.21,6.722.94,
-0.03,0.84,0.48,-0.42,7.003.36,
-0.03,0.85,0.49,-0.49,7.213.29,
-0.03,0.85,0.49,-0.42,7.213.43,
-0.04,0.86,0.49,-0.28,6.793.22,
-0.04,0.86,0.49,-0.14,6.513.08,
-0.03,0.86,0.48,-0.07,6.443.01,
-0.03,0.85,0.48,0.14,6.162.66,
-0.03,0.85,0.48,0.35,6.022.66,
-0.03,0.85,0.48,0.56,6.162.87,
-0.03,0.85,0.48,0.7,6.232.87,
-0.03,0.86,0.48,1.05,6.162.87,
-0.04,0.87,0.48,0.7,6.162.80,
-0.04,0.87,0.47,0.56,6.232.87,
-0.04,0.87,0.47,0.21,6.303.08,
-0.05,0.87,0.47,-0.07,6.302.66,
-0.05,0.86,0.47,0.07,5.882.66,
-0.05,0.86,0.48,0.49,5.392.31,
-0.05,0.86,0.48,0.7,5.181.75,
-0.05,0.85,0.48,0.91,5.041.75,
-0.04,0.86,0.49,1.05,4.411.12,
-0.04,0.86,0.49,1.05,4.200.84,
-0.04,0.86,0.48,0.91,3.710.98,
-0.04,0.86,0.48,0.49,3.360.42,
-0.04,0.86,0.48,0.35,2.870.91,
-0.04,0.87,0.48,0.07,2.800.35,
-0.04,0.87,0.47,-0.42,2.660.28,
-0.04,0.87,0.47,-0.77,2.730.14,
-0.04,0.87,0.47,-1.19,2.590.49,
-0.05,0.86,0.47,-1.26,2.380.49,
-0.05,0.85,0.47,-0.91,2.030.77,
-0.06,0.85,0.47,-0.49,1.540.91,
-0.06,0.86,0.47,-0.35,0.420.49,
-0.06,0.85,0.47,-0.21,-1.050.77,
-0.06,0.85,0.47,0,-2.030.49,
-0.06,0.85,0.47,0.14,-2.940.70,
-0.06,0.85,0.47,0.35,-3.500.42,
-0.05,0.84,0.47,0.28,-3.710.35,
-0.04,0.85,0.48,0.21,-3.360.07,
-0.04,0.86,0.48,0.28,-3.01,
-0.03,0.86,0.49,0.21,-2.240.00,
-0.03,0.86,0.49,0.21,-1.75,
-0.03,0.86,0.49,0.14,-1.54,
-0.03,0.86,0.49,0,-1.19,
-0.03,0.86,0.5,-0.14,-0.4217.85,
-0.03,0.86,0.49,-0.21,-0.21,
-0.03,0.85,0.49,-0.28,0.21-0.14,
-0.03,0.85,0.49,-0.07,0.49-0.21,
-0.03,0.85,0.49,0.21,0.70-0.35,
-0.03,0.85,0.48,0.63,0.63-0.28,
-0.03,0.85,0.48,0.91,0.770.00,
-0.04,0.85,0.49,1.47,0.98-0.14,
-0.04,0.85,0.49,1.75,1.190.14,
-0.04,0.85,0.49,1.89,1.40-0.07,
-0.04,0.85,0.49,1.89,1.610.00,
-0.04,0.85,0.49,2.17,1.75-0.21,
-0.05,0.85,0.49,2.03,1.82-0.07,
-0.04,0.86,0.49,1.75,1.54-0.07,
-0.05,0.86,0.49,1.68,1.47-0.14,
-0.04,0.86,0.49,1.33,1.260.35,
-0.05,0.86,0.49,0.91,1.610.42,
-0.05,0.86,0.49,0.56,1.260.70,
-0.05,0.86,0.48,0.7,1.190.42,
-0.06,0.85,0.48,0.91,0.700.70,
-0.06,0.85,0.48,0.98,0.420.49,
-0.06,0.85,0.48,0.98,0.140.70,
-0.06,0.85,0.48,1.05,-0.140.70,
-0.06,0.85,0.48,0.98,-0.210.77,
-0.07,0.85,0.48,0.91,-0.140.70,
-0.06,0.86,0.48,0.49,-0.141.05,
-0.06,0.86,0.48,0.28,-0.211.40,
-0.06,0.86,0.48,0.35,-0.141.54,
-0.06,0.86,0.48,0.35,-0.281.47,
-0.06,0.85,0.48,0.49,-0.281.05,
-0.06,0.85,0.49,1.12,-0.490.98,
-0.06,0.85,0.49,1.61,-0.700.63,
-0.06,0.85,0.49,1.75,-0.840.28,
-0.06,0.85,0.49,2.1,-1.47,
-0.06,0.85,0.49,2.17,-2.24,
-0.06,0.85,0.49,2.17,-2.24,
-0.06,0.86,0.49,2.03,-2.17,
-0.05,0.85,0.49,1.61,-2.03,
-0.05,0.86,0.49,1.47,-1.33,
-0.05,0.86,0.49,1.33,-0.49,
-0.05,0.86,0.49,1.33,0.070.28,
-0.06,0.85,0.49,1.47,0.070.21,
-0.06,0.85,0.49,1.54,0.420.63,
-0.06,0.85,0.49,2.1,0.700.77,
-0.06,0.85,0.49,2.31,0.910.63,
-0.06,0.85,0.5,2.52,1.050.91,
-0.07,0.86,0.5,2.59,1.050.42,
-0.06,0.86,0.5,2.38,0.840.91,
-0.07,0.86,0.49,2.24,0.841.26,
-0.06,0.86,0.49,1.96,0.491.19,
-0.07,0.86,0.49,1.54,0.421.12,
-0.07,0.85,0.49,1.19,0.141.68,
-0.07,0.85,0.48,0.91,0.001.54,
-0.07,0.85,0.48,0.49,-0.141.26,
-0.07,0.85,0.49,0.56,-0.561.19,
-0.07,0.85,0.49,0.7,-0.840.42,
-0.07,0.85,0.49,1.12,-1.120.07,
-0.06,0.85,0.49,1.26,-1.19,
-0.06,0.85,0.49,1.33,-1.190.00,
-0.06,0.85,0.49,1.33,-1.120.14,
-0.05,0.86,0.48,1.12,-1.120.70,
-0.05,0.86,0.48,0.91,-1.120.70,
-0.05,0.86,0.48,0.84,-1.051.33,
-0.05,0.85,0.48,0.98,-0.841.89,
-0.05,0.86,0.48,0.98,-0.352.10,
-0.05,0.86,0.48,1.47,-0.281.75,
-0.06,0.86,0.48,1.54,-0.071.68,
-0.06,0.86,0.48,1.82,-0.421.61,
-0.06,0.86,0.48,1.89,-0.701.47,
-0.06,0.86,0.48,1.89,-0.771.19,
-0.06,0.86,0.48,1.54,-1.121.40,
-0.05,0.86,0.48,1.4,-1.191.47,
-0.05,0.86,0.48,1.26,-0.981.40,
-0.05,0.86,0.48,1.4,-0.841.33,
-0.06,0.86,0.48,1.26,-0.630.91,
-0.06,0.86,0.48,1.4,-0.561.26,
-0.06,0.86,0.48,1.47,-0.491.05,
-0.06,0.86,0.47,1.26,-0.210.98,
-0.06,0.86,0.47,1.4,-0.350.84,
-0.06,0.86,0.47,1.4,-0.140.91,
-0.06,0.86,0.47,1.47,-0.420.84,
-0.05,0.86,0.47,1.4,-0.420.98,
-0.05,0.86,0.47,1.47,-0.491.26,
-0.05,0.86,0.47,1.4,-0.491.40,
-0.06,0.86,0.47,1.54,-0.841.05,
-0.06,0.86,0.47,1.47,-1.051.68,
-0.06,0.86,0.47,1.68,-1.401.54,
-0.06,0.86,0.47,1.75,-1.751.61,
-0.06,0.86,0.48,1.82,-2.031.40,
-0.06,0.86,0.47,1.82,-2.241.19,
-0.05,0.86,0.48,1.82,-2.381.05,
-0.05,0.86,0.48,1.68,-2.311.26,
-0.05,0.87,0.48,1.47,-2.030.91,
-0.05,0.87,0.48,1.26,-1.960.77,
-0.04,0.87,0.48,0.98,-1.821.33,
-0.04,0.86,0.48,0.91,-1.541.26,
-0.04,0.86,0.48,1.12,-1.261.12,
-0.04,0.86,0.48,1.05,-0.911.68,
-0.04,0.86,0.48,1.33,-0.771.75,
-0.04,0.86,0.48,1.61,-0.491.12,
-0.04,0.86,0.48,1.61,-0.211.75,
-0.04,0.86,0.48,1.61,-0.071.61,
-0.05,0.86,0.48,1.54,-0.141.47,
-0.04,0.87,0.48,1.4,-0.491.54,
-0.05,0.87,0.48,1.47,-0.701.26,
-0.05,0.86,0.48,1.26,-0.840.63,
-0.05,0.86,0.48,1.05,-1.121.19,
-0.05,0.86,0.48,0.91,-1.051.26,
-0.05,0.86,0.48,0.63,-1.051.40,
-0.05,0.86,0.48,0.49,-1.051.54,
-0.05,0.86,0.48,0.42,-0.701.68,
-0.04,0.86,0.48,0.56,-0.281.47,
-0.04,0.86,0.48,0.77,-0.141.61,
-0.04,0.86,0.48,0.98,0.141.68,
-0.04,0.86,0.48,1.05,0.421.26,
-0.04,0.86,0.48,0.91,0.631.47,
-0.04,0.86,0.47,0.84,0.771.54,
-0.04,0.86,0.47,0.84,0.701.82,
-0.05,0.86,0.48,0.77,0.912.73,
-0.05,0.87,0.48,0.77,0.702.03,
-0.05,0.86,0.48,0.7,0.562.38,
-0.05,0.86,0.48,0.63,0.422.59,
-0.05,0.85,0.48,0.7,0.072.38,
-0.05,0.85,0.48,0.98,-0.352.17,
-0.05,0.85,0.48,0.91,-0.772.17,
-0.05,0.85,0.48,1.12,-1.261.96,
-0.05,0.86,0.48,1.05,-1.752.03,
-0.05,0.86,0.48,0.7,-2.031.54,
-0.05,0.86,0.48,0.21,-2.171.82,
-0.05,0.86,0.48,-0.14,-2.102.10,
-0.05,0.86,0.48,-0.28,-2.241.89,
-0.04,0.86,0.48,-0.42,-2.452.10,
-0.04,0.86,0.48,-0.42,-2.311.96,
-0.04,0.86,0.48,-0.35,-2.032.31,
-0.04,0.86,0.48,-0.35,-1.892.10,
-0.04,0.86,0.48,-0.14,-1.962.24,
-0.04,0.86,0.48,0,-1.821.68,
-0.04,0.86,0.48,0.14,-2.172.17,
-0.04,0.86,0.48,0.14,-2.031.75,
-0.04,0.86,0.48,0.07,-1.752.10,
-0.03,0.86,0.48,0.07,-1.402.24,
-0.03,0.86,0.49,-0.07,-0.842.52,
-0.04,0.86,0.48,-0.14,-0.422.59,
-0.03,0.85,0.48,0,-0.142.73,
-0.04,0.86,0.48,0.21,-0.072.52,
-0.04,0.85,0.48,0.63,0.071.89,
-0.04,0.86,0.48,0.49,0.282.45,
-0.04,0.86,0.48,0.49,0.352.10,
-0.04,0.86,0.48,0.35,0.281.82,
-0.04,0.86,0.48,0.14,0.072.03,
-0.04,0.85,0.49,0.14,0.002.10,
-0.04,0.85,0.49,0.35,0.142.10,
-0.04,0.86,0.49,0.63,0.142.24,
-0.04,0.86,0.49,0.91,0.351.54,
-0.04,0.86,0.48,0.84,0.561.96,
-0.04,0.86,0.49,0.91,0.771.82,
-0.04,0.86,0.48,0.7,1.052.03,
-0.04,0.86,0.48,0.56,0.842.17,
-0.04,0.86,0.48,0.49,0.562.17,
-0.05,0.86,0.49,0.63,0.002.03,
-0.04,0.86,0.49,0.63,-0.561.75,
-0.04,0.86,0.49,0.56,-1.051.89,
-0.04,0.85,0.49,0.49,-1.331.89,
-0.04,0.85,0.49,0.35,-1.471.96,
-0.04,0.85,0.49,0.35,-1.541.89,
-0.03,0.85,0.49,0.42,-1.261.82,
-0.03,0.85,0.49,0.56,-0.982.10,
-0.03,0.85,0.49,0.49,-0.702.24,
-0.03,0.85,0.49,0.56,-0.352.10,
-0.03,0.85,0.49,0.56,-0.211.96,
-0.03,0.86,0.49,0.42,0.002.31,
-0.03,0.86,0.49,0.35,0.212.52,
-0.03,0.86,0.49,0.35,0.142.10,
-0.03,0.86,0.49,0.42,0.072.52,
-0.03,0.86,0.49,0.35,-0.072.31,
-0.03,0.85,0.49,0.35,0.002.17,
-0.03,0.85,0.49,0.63,-0.212.31,
-0.03,0.86,0.49,0.63,-0.072.24,
-0.03,0.86,0.49,0.56,0.142.59,
-0.03,0.86,0.48,0.49,0.212.59,
-0.04,0.86,0.48,0.7,0.492.31,
-0.04,0.86,0.48,0.7,0.352.24,
-0.03,0.85,0.49,0.77,0.212.10,
-0.04,0.85,0.49,0.98,0.072.03,
-0.04,0.86,0.49,0.98,-0.071.96,
-0.03,0.86,0.48,0.91,-0.072.03,
-0.03,0.86,0.48,0.77,-0.141.89,
-0.03,0.85,0.48,0.63,-0.211.96,
-0.03,0.85,0.48,0.56,0.001.96,
-0.03,0.85,0.48,0.7,0.071.96,
-0.04,0.85,0.49,0.84,0.212.17,
-0.03,0.86,0.49,0.91,0.281.75,
-0.03,0.85,0.49,0.91,0.211.89,
-0.04,0.86,0.48,0.91,0.211.75,
-0.04,0.86,0.48,0.91,0.001.68,
-0.04,0.86,0.48,0.77,-0.281.68,
-0.04,0.86,0.48,0.7,-0.421.89,
-0.04,0.86,0.48,0.7,-0.491.54,
-0.03,0.86,0.48,0.77,-0.561.40,
-0.03,0.86,0.49,0.7,-0.561.47,
-0.03,0.86,0.48,0.7,-0.911.54,
-0.03,0.85,0.48,0.63,-1.051.61,
-0.04,0.86,0.48,0.63,-1.191.47,
-0.03,0.86,0.49,0.84,-1.331.68,
-0.03,0.86,0.48,0.84,-1.261.40,
-0.03,0.86,0.48,0.84,-1.401.05,
-0.03,0.86,0.48,0.7,-1.610.77,
-0.03,0.86,0.48,0.63,-1.540.91,
-0.03,0.86,0.48,0.7,-1.750.91,
-0.03,0.86,0.48,0.63,-1.960.91,
-0.03,0.85,0.49,0.7,-2.100.84,
-0.03,0.86,0.49,0.98,-2.030.98,
-0.03,0.86,0.49,1.12,-2.030.56,
-0.03,0.86,0.49,1.05,-1.680.70,
-0.03,0.86,0.49,0.91,-1.680.70,
-0.02,0.86,0.48,0.98,-1.680.35,
-0.03,0.86,0.49,1.05,-1.750.77,
-0.03,0.86,0.49,1.12,-1.820.63,
-0.03,0.86,0.48,1.05,-1.820.84,
-0.03,0.86,0.49,0.91,-1.821.05,
-0.03,0.86,0.49,0.84,-1.680.70,
-0.03,0.86,0.48,0.77,-1.540.49,
-0.03,0.86,0.49,0.84,-1.610.42,
-0.03,0.86,0.49,0.77,-1.400.77,
-0.03,0.86,0.48,0.7,-1.120.49,
-0.03,0.85,0.48,0.84,-0.980.91,
-0.03,0.85,0.49,0.84,-0.840.77,
-0.03,0.85,0.49,0.84,-0.700.91,
-0.03,0.86,0.48,0.77,-0.630.84,
-0.03,0.86,0.48,0.56,-0.771.26,
-0.03,0.86,0.48,0.42,-0.701.19,
-0.03,0.86,0.48,0.28,-0.841.47,
-0.03,0.86,0.48,0.21,-1.121.33,
-0.03,0.86,0.48,0.42,-1.051.40,
-0.03,0.85,0.48,0.49,-1.121.40,
-0.03,0.85,0.49,0.84,-1.330.91,
-0.03,0.85,0.49,0.98,-1.260.70,
-0.03,0.86,0.49,1.12,-1.120.42,
-0.03,0.86,0.49,1.12,-0.910.77,
-0.03,0.86,0.48,0.98,-0.770.77,
-0.03,0.86,0.48,0.91,-0.490.84,
-0.03,0.86,0.48,0.98,-0.210.91,
-0.03,0.86,0.48,1.05,0.070.84,
-0.03,0.85,0.49,0.91,0.281.12,
-0.04,0.86,0.48,0.98,0.211.19,
-0.03,0.85,0.48,0.91,0.140.63,
-0.03,0.85,0.49,0.7,0.350.91,
-0.03,0.86,0.49,0.56,0.140.98,
-0.03,0.85,0.49,0.56,-0.140.91,
-0.03,0.86,0.49,0.63,-0.141.33,
-0.03,0.86,0.49,0.56,-0.280.91,
-0.03,0.86,0.49,0.63,-0.211.19,
-0.03,0.85,0.49,0.77,-0.140.91,
-0.03,0.85,0.49,0.7,-0.141.12,
-0.03,0.85,0.48,0.77,-0.141.26,
-0.03,0.86,0.48,0.7,0.000.84,
-0.03,0.86,0.48,0.56,0.350.98,
-0.03,0.86,0.49,0.63,0.420.98,
-0.03,0.86,0.49,0.77,0.071.26,
-0.03,0.85,0.49,0.77,0.140.91,
-0.03,0.85,0.49,0.7,0.070.84,
-0.03,0.85,0.49,0.84,-0.141.19,
-0.03,0.86,0.49,0.77,0.001.05,
-0.03,0.86,0.49,0.7,0.070.91,
-0.03,0.86,0.48,0.63,0.211.33,
-0.03,0.86,0.49,0.42,0.211.33,
-0.03,0.86,0.49,0.35,0.001.12,
-0.03,0.85,0.49,0.42,-0.071.05,
-0.03,0.85,0.49,0.35,-0.141.40,
-0.03,0.85,0.49,0.56,-0.211.05,
-0.03,0.85,0.48,0.49,-0.210.98,
-0.03,0.85,0.48,0.35,-0.210.98,
-0.03,0.85,0.49,0.42,-0.071.33,
-0.03,0.85,0.49,0.56,0.001.19,
-0.03,0.85,0.49,0.35,0.211.05,
-0.03,0.86,0.49,0.56,0.210.91,
-0.03,0.86,0.49,0.49,0.421.26,
-0.03,0.85,0.49,0.56,0.560.98,
-0.03,0.86,0.48,0.7,0.701.19,
-0.03,0.85,0.49,0.98,0.700.91,
-0.03,0.85,0.49,1.19,0.910.91,
-0.03,0.86,0.49,1.26,0.910.56,
-0.03,0.86,0.49,1.26,1.120.70,
-0.03,0.86,0.49,1.19,1.121.33,
-0.04,0.86,0.49,0.91,1.120.63,
-0.03,0.86,0.49,0.91,1.050.63,
-0.04,0.86,0.49,0.7,0.701.19,
-0.04,0.86,0.49,0.63,0.420.91,
-0.04,0.86,0.49,0.77,0.350.77,
-0.04,0.86,0.48,0.7,0.070.98,
-0.04,0.85,0.48,0.77,-0.070.84,
-0.04,0.85,0.49,0.98,-0.350.35,
-0.04,0.85,0.49,1.19,-0.350.21,
-0.04,0.85,0.49,1.26,-0.560.28,
-0.04,0.85,0.49,1.54,-0.91,
-0.04,0.85,0.49,1.61,-0.77,
-0.03,0.85,0.49,1.68,-0.77,
-0.03,0.85,0.49,1.75,-1.12,
-0.03,0.86,0.49,1.54,-0.770.07,
-0.03,0.86,0.49,1.33,-0.700.42,
-0.02,0.86,0.49,1.12,-0.420.35,
-0.03,0.86,0.49,0.98,-0.140.07,
-0.02,0.85,0.49,0.98,0.070.00,
-0.02,0.86,0.49,1.05,0.280.56,
-0.02,0.86,0.49,1.33,0.420.35,
-0.02,0.86,0.49,1.54,0.490.42,
-0.02,0.85,0.49,1.75,0.560.07,
-0.02,0.85,0.49,1.75,0.770.84,
-0.02,0.85,0.49,1.61,1.190.98,
-0.02,0.85,0.49,1.61,1.750.77,
-0.02,0.85,0.49,1.68,2.310.84,
-0.03,0.85,0.49,1.68,2.591.40,
-0.03,0.86,0.49,1.82,2.801.33,
-0.03,0.86,0.49,1.61,2.801.54,
-0.04,0.86,0.49,1.47,2.801.61,
-0.04,0.86,0.49,1.4,2.591.54,
-0.05,0.86,0.49,1.33,2.101.68,
-0.05,0.86,0.49,1.19,1.961.33,
-0.05,0.86,0.49,1.05,1.611.19,
-0.04,0.86,0.49,0.98,1.121.19,
-0.04,0.86,0.49,0.77,1.051.05,
-0.04,0.85,0.49,0.77,0.771.19,
-0.04,0.86,0.49,0.77,1.051.68,
-0.04,0.85,0.49,0.98,1.191.33,
-0.04,0.85,0.48,1.12,1.401.33,
-0.04,0.85,0.48,1.05,1.611.68,
-0.04,0.85,0.48,1.12,2.171.33,
-0.05,0.85,0.48,1.26,2.661.12,
-0.05,0.86,0.48,1.33,2.801.19,
-0.05,0.86,0.48,1.33,2.661.33,
-0.05,0.86,0.48,1.4,2.520.98,
-0.05,0.86,0.48,1.61,2.100.84,
-0.05,0.86,0.48,1.75,1.610.63,
-0.05,0.85,0.49,1.68,1.050.63,
-0.05,0.85,0.48,1.75,0.630.07,
-0.05,0.85,0.48,1.89,0.210.14,
-0.05,0.86,0.48,1.68,0.140.56,
-0.04,0.86,0.48,1.4,0.210.42,
-0.04,0.86,0.48,1.26,0.280.70,
-0.04,0.86,0.48,0.91,0.770.84,
-0.04,0.86,0.48,0.77,1.261.12,
-0.04,0.86,0.48,0.7,1.541.19,
-0.04,0.86,0.48,0.7,1.470.63,
-0.04,0.86,0.48,1.12,1.400.70,
-0.04,0.86,0.48,1.4,1.050.42,
-0.04,0.86,0.48,1.61,0.560.35,
-0.04,0.85,0.48,1.96,0.07-17.78,
-0.04,0.86,0.48,2.03,-0.140.56,
-0.04,0.86,0.48,1.75,-0.210.21,
-0.04,0.86,0.48,1.61,-0.420.21,
-0.04,0.86,0.48,1.33,-0.280.77,
-0.04,0.86,0.48,1.12,0.000.70,
-0.04,0.86,0.48,0.91,0.350.77,
-0.04,0.86,0.48,0.91,0.631.05,
-0.04,0.86,0.48,0.98,0.910.70,
-0.04,0.86,0.48,1.19,0.840.21,
-0.04,0.86,0.48,1.33,0.420.21,
-0.04,0.86,0.48,1.54,0.070.07,
-0.04,0.86,0.48,1.54,0.000.35,
-0.04,0.86,0.48,1.61,-0.490.42,
-0.04,0.86,0.48,1.47,-0.770.42,
-0.04,0.86,0.48,1.19,-0.840.77,
-0.04,0.86,0.48,1.33,-0.630.91,
-0.04,0.86,0.48,1.26,-0.280.84,
-0.04,0.86,0.48,1.19,0.211.05,
-0.04,0.86,0.48,1.26,0.700.91,
-0.04,0.86,0.48,1.19,1.050.56,
-0.04,0.86,0.48,1.33,1.260.56,
-0.04,0.86,0.48,1.33,1.610.91,
-0.04,0.86,0.48,1.4,1.471.12,
-0.05,0.86,0.48,1.26,1.261.33,
-0.05,0.86,0.48,1.19,1.191.40,
-0.05,0.86,0.48,1.26,0.911.12,
-0.05,0.86,0.48,1.19,0.770.77,
-0.05,0.86,0.48,1.4,0.561.12,
-0.05,0.85,0.48,1.4,0.771.47,
-0.05,0.85,0.48,1.47,0.980.98,
-0.05,0.85,0.48,1.54,1.331.26,
-0.05,0.85,0.48,1.61,2.030.98,
-0.05,0.86,0.48,1.68,2.101.19,
-0.05,0.86,0.48,1.54,2.451.05,
-0.05,0.86,0.48,1.4,2.451.33,
-0.05,0.86,0.48,1.47,2.450.91,
-0.05,0.86,0.48,1.4,2.171.12,
-0.05,0.86,0.48,1.54,1.961.05,
-0.05,0.86,0.48,1.47,1.541.19,
-0.05,0.86,0.48,1.54,1.120.91,
-0.05,0.86,0.48,1.47,0.910.77,
-0.05,0.86,0.48,1.47,0.701.05,
-0.05,0.86,0.48,1.33,0.630.98,
-0.05,0.86,0.48,1.33,0.841.12,
-0.05,0.86,0.48,1.26,1.051.12,
-0.05,0.86,0.48,1.4,1.190.98,
-0.05,0.86,0.48,1.47,1.401.19,
-0.05,0.86,0.48,1.54,1.610.91,
-0.05,0.86,0.48,1.54,1.540.91,
-0.05,0.86,0.48,1.47,1.541.33,
-0.05,0.86,0.48,1.54,1.611.26,
-0.05,0.86,0.48,1.61,1.471.26,
-0.05,0.86,0.48,1.47,1.401.33,
-0.05,0.86,0.48,1.68,0.981.12,
-0.05,0.86,0.48,1.68,0.910.84,
-0.05,0.86,0.48,1.26,0.701.19,
-0.05,0.86,0.48,1.26,0.701.05,
-0.05,0.86,0.47,1.12,0.771.12,
-0.05,0.86,0.47,1.12,0.981.47,
-0.05,0.86,0.47,1.05,1.121.26,
-0.05,0.86,0.47,1.05,1.331.12,
-0.05,0.86,0.47,1.26,1.190.98,
-0.05,0.86,0.47,1.54,0.980.56,
-0.05,0.86,0.48,1.75,0.630.63,
-0.06,0.86,0.48,1.68,0.140.49,
-0.05,0.86,0.47,1.82,-0.210.28,
-0.05,0.86,0.48,1.82,-0.630.21,
-0.05,0.86,0.48,1.68,-0.910.21,
-0.05,0.86,0.48,1.47,-1.050.42,
-0.05,0.86,0.47,1.33,-0.980.28,
-0.05,0.86,0.47,1.05,-0.980.70,
-0.05,0.87,0.47,0.77,-1.050.91,
-0.06,0.86,0.47,0.77,-1.330.84,
-0.06,0.86,0.47,0.63,-1.610.98,
-0.06,0.86,0.47,0.63,-1.820.42,
-0.05,0.86,0.47,0.98,-1.820.28,
-0.05,0.86,0.48,1.05,-2.030.63,
-0.05,0.86,0.48,1.12,-1.820.63,
-0.05,0.86,0.48,1.19,-1.820.56,
-0.04,0.86,0.48,1.05,-1.541.05,
-0.04,0.86,0.48,0.77,-1.191.26,
-0.04,0.86,0.48,0.77,-0.841.26,
-0.04,0.86,0.47,0.63,-0.281.19,
-0.04,0.86,0.47,0.77,-0.141.12,
-0.05,0.85,0.47,0.91,0.070.91,
-0.05,0.85,0.47,1.26,-0.071.19,
-0.05,0.86,0.48,1.47,0.350.70,
-0.05,0.86,0.48,1.75,0.490.49,
-0.04,0.86,0.48,1.89,0.770.56,
-0.04,0.86,0.48,1.89,1.050.42,
-0.04,0.86,0.48,1.82,1.260.56,
-0.05,0.86,0.48,1.68,1.470.98,
-0.05,0.86,0.48,1.54,1.540.98,
-0.05,0.86,0.48,1.54,1.540.77,
-0.05,0.86,0.48,1.26,1.610.84,
-0.05,0.86,0.48,1.19,1.400.91,
-0.05,0.86,0.47,1.19,1.190.56,
-0.05,0.86,0.47,1.12,1.050.28,
-0.05,0.86,0.47,1.19,1.12-0.14,
-0.05,0.86,0.47,1.4,1.12-0.56,
-0.05,0.86,0.47,1.61,0.70-0.49,
-0.05,0.86,0.47,1.82,0.42-0.91,
-0.06,0.86,0.47,2.1,0.07-0.98,
-0.05,0.86,0.48,2.38,-1.19,
-0.05,0.86,0.47,2.52,-1.12,
-0.05,0.86,0.47,2.66,-1.05,
-0.05,0.86,0.47,2.59,-0.700.07,
-0.05,0.86,0.48,2.59,-0.560.42,
-0.05,0.86,0.47,2.31,-0.210.35,
-0.05,0.86,0.47,1.96,-0.140.56,
-0.06,0.87,0.47,1.68,-0.420.42,
-0.06,0.87,0.47,1.4,-0.560.14,
-0.06,0.87,0.47,0.98,-0.700.14,
-0.06,0.87,0.47,0.91,-0.700.84,
-0.06,0.87,0.48,0.7,-0.770.63,
-0.06,0.86,0.48,0.63,-0.770.63,
-0.05,0.86,0.48,0.63,-0.910.84,
-0.05,0.86,0.48,0.63,-0.770.70,
-0.05,0.86,0.47,0.56,-0.770.91,
-0.05,0.86,0.48,0.7,-0.490.98,
-0.05,0.86,0.47,0.7,-0.561.40,
-0.05,0.86,0.47,0.7,-0.211.19,
-0.05,0.86,0.47,0.84,-0.141.12,
-0.05,0.86,0.47,0.91,0.001.33,
-0.05,0.86,0.47,1.12,0.281.33,
-0.06,0.86,0.47,1.26,0.701.33,
-0.06,0.86,0.47,1.54,0.631.19,
-0.06,0.86,0.48,1.82,0.770.91,
-0.06,0.86,0.48,1.68,0.770.98,
-0.06,0.86,0.48,1.75,0.700.77,
-0.06,0.87,0.48,1.47,0.630.42,
-0.06,0.87,0.47,1.33,0.490.49,
-0.06,0.87,0.47,1.12,0.770.42,
-0.06,0.87,0.47,1.05,0.770.42,
-0.06,0.86,0.47,1.05,0.910.42,
-0.07,0.86,0.47,1.26,0.980.42,
-0.07,0.86,0.47,1.47,0.980.49,
-0.06,0.86,0.47,1.54,0.770.28,
-0.06,0.86,0.47,1.61,0.770.63,
-0.06,0.86,0.47,1.75,0.700.63,
-0.06,0.86,0.47,1.82,0.350.42,
-0.06,0.86,0.47,1.54,0.280.56,
-0.06,0.86,0.47,1.54,0.140.84,
-0.06,0.86,0.47,1.47,0.000.84,
-0.06,0.86,0.47,1.4,-0.070.21,
-0.06,0.86,0.47,1.4,-0.140.07,
-0.06,0.86,0.47,1.4,-0.350.49,
-0.06,0.86,0.47,1.4,-0.070.56,
-0.06,0.86,0.47,1.33,0.070.21,
-0.06,0.86,0.47,1.4,0.140.21,
-0.06,0.86,0.47,1.12,0.140.56,
-0.06,0.86,0.47,1.19,-17.920.28,
-0.06,0.86,0.47,1.05,-0.490.42,
-0.06,0.86,0.47,1.12,-0.490.49,
-0.06,0.87,0.46,0.98,-0.630.56,
-0.06,0.86,0.47,1.12,-0.840.63,
-0.06,0.87,0.47,0.91,-0.771.05,
-0.06,0.87,0.47,0.98,-0.700.84,
-0.06,0.86,0.47,1.12,-0.490.56,
-0.06,0.86,0.47,1.19,-0.350.84,
-0.06,0.86,0.47,1.33,-0.210.63,
-0.05,0.86,0.47,1.68,0.000.63,
-0.06,0.86,0.47,1.61,0.210.56,
-0.06,0.86,0.47,1.61,0.350.35,
-0.06,0.87,0.47,1.54,0.140.56,
-0.06,0.86,0.47,1.47,-0.070.91,
-0.06,0.87,0.47,1.12,-0.140.84,
-0.06,0.87,0.47,1.12,-0.210.63,
-0.06,0.87,0.47,1.12,-0.070.77,
-0.06,0.87,0.47,1.05,0.14-0.07,
-0.06,0.87,0.47,1.12,0.140.49,
-0.06,0.87,0.47,1.12,-0.140.49,
-0.06,0.86,0.47,1.12,-0.280.63,
-0.06,0.86,0.47,1.19,-0.210.42,
-0.06,0.86,0.47,1.19,-0.210.77,
-0.06,0.86,0.47,1.12,0.000.77,
-0.06,0.86,0.47,1.26,0.210.35,
-0.06,0.87,0.47,1.12,0.141.05,
-0.06,0.87,0.47,1.12,-0.070.91,
-0.06,0.87,0.47,1.19,-0.210.49,
-0.06,0.87,0.47,1.05,-0.280.63,
-0.06,0.87,0.47,0.77,-0.350.35,
-0.06,0.86,0.47,0.84,-0.280.42,
-0.06,0.86,0.47,0.98,-0.280.49,
-0.06,0.86,0.47,1.12,-0.280.35,
-0.06,0.86,0.47,1.12,-0.140.56,
-0.06,0.86,0.47,1.26,-0.210.42,
-0.06,0.86,0.47,1.26,-0.140.42,
-0.06,0.86,0.47,1.33,-0.350.56,
-0.06,0.86,0.47,1.19,-0.490.56,
-0.06,0.87,0.47,1.19,-0.630.42,
-0.06,0.87,0.47,1.12,-0.630.28,
-0.06,0.87,0.47,0.91,-0.560.84,
-0.06,0.87,0.47,0.84,-0.700.49,
-0.06,0.86,0.47,0.91,-0.630.56,
-0.06,0.87,0.47,0.91,-0.420.70,
-0.06,0.86,0.47,0.91,-0.560.28,
-0.06,0.86,0.47,0.91,-0.350.42,
-0.06,0.86,0.47,1.05,-0.420.28,
-0.07,0.86,0.47,1.19,-0.490.63,
-0.06,0.86,0.47,1.33,-0.490.07,
-0.06,0.86,0.47,1.4,-0.490.21,
-0.06,0.86,0.47,1.33,-0.490.35,
-0.06,0.87,0.47,1.33,-0.140.63,
-0.06,0.87,0.47,1.33,-0.140.42,
-0.06,0.87,0.47,1.05,0.070.77,
-0.06,0.87,0.47,0.91,0.140.63,
-0.06,0.87,0.47,0.77,-0.210.91,
-0.06,0.87,0.47,0.7,-0.351.33,
-0.07,0.86,0.47,0.77,-0.211.26,
-0.07,0.86,0.47,0.7,-0.211.54,
-0.07,0.86,0.47,0.56,-0.351.61,
-0.07,0.86,0.47,0.42,-0.141.40,
-0.06,0.86,0.47,0.49,-0.071.75,
-0.06,0.86,0.47,0.63,0.281.61,
-0.06,0.86,0.47,0.56,0.421.82,
-0.06,0.86,0.47,0.63,0.701.75,
-0.06,0.86,0.47,0.91,0.701.96,
-0.07,0.86,0.48,0.98,0.702.10,
-0.07,0.86,0.48,1.19,0.631.89,
-0.06,0.86,0.48,1.26,0.981.89,
-0.07,0.86,0.48,1.26,1.401.68,
-0.06,0.87,0.48,0.91,2.031.33,
-0.05,0.86,0.48,0.91,2.870.77,
-0.05,0.86,0.48,0.91,3.151.26,
-0.06,0.87,0.48,0.7,3.361.33,
-0.06,0.86,0.47,0.56,3.081.54,
-0.07,0.86,0.47,0.56,2.871.19,
-0.06,0.86,0.47,0.49,3.081.54,
-0.06,0.86,0.47,0.56,3.221.47,
-0.06,0.86,0.47,0.7,3.501.26,
-0.06,0.85,0.47,0.91,3.501.82,
-0.06,0.86,0.47,0.91,3.432.17,
-0.06,0.86,0.46,0.84,3.432.38,
-0.07,0.86,0.47,0.77,3.432.87,
-0.07,0.87,0.46,0.56,3.432.94,
-0.07,0.87,0.47,0.49,3.292.66,
-0.06,0.87,0.46,0.21,3.502.59,
-0.07,0.87,0.47,0.35,3.292.59,
-0.07,0.86,0.46,0.35,3.362.31,
-0.06,0.86,0.46,0.49,3.082.10,
-0.06,0.86,0.47,0.56,3.082.52,
-0.06,0.86,0.46,0.56,2.942.38,
-0.06,0.86,0.47,0.63,2.872.24,
-0.06,0.86,0.46,0.56,2.872.31,
-0.06,0.86,0.46,0.42,2.942.73,
-0.07,0.86,0.46,0.7,2.872.52,
-0.07,0.87,0.46,0.7,2.872.24,
-0.07,0.87,0.46,0.77,2.732.03,
-0.07,0.87,0.46,0.84,2.521.75,
-0.07,0.87,0.46,1.12,2.311.82,
-0.07,0.87,0.47,1.26,2.311.47,
-0.07,0.86,0.47,1.33,2.451.47,
-0.07,0.86,0.47,1.47,2.591.19,
-0.07,0.86,0.47,1.61,2.521.12,
-0.07,0.86,0.47,1.75,2.240.91,
-0.07,0.86,0.47,1.68,2.031.19,
-0.07,0.87,0.47,1.61,1.821.47,
-0.07,0.87,0.46,1.4,1.471.47,
-0.07,0.87,0.46,1.12,1.261.89,
-0.07,0.86,0.46,0.91,1.121.96,
-0.07,0.86,0.47,0.7,1.261.82,
-0.07,0.86,0.47,0.7,1.122.03,
-0.07,0.87,0.47,0.35,0.772.03,
-0.07,0.87,0.47,0,0.141.68,
-0.07,0.87,0.46,-0.21,-0.281.47,
-0.07,0.87,0.46,-0.35,-0.841.89,
-0.07,0.86,0.46,-0.49,-1.121.40,
-0.07,0.86,0.47,-0.21,-1.331.89,
-0.07,0.87,0.48,0.28,-0.631.75,
-0.06,0.87,0.48,0.77,-0.561.05,
-0.06,0.87,0.47,0.7,-0.420.98,
-0.05,0.86,0.46,0.49,-0.070.56,
-0.05,0.86,0.45,0.21,0.840.84,
-0.06,0.86,0.45,0.35,1.541.61,
-0.06,0.87,0.45,0.63,1.961.75,
-0.06,0.87,0.46,0.49,2.241.75,
-0.06,0.87,0.46,0.07,2.802.10,
-0.05,0.87,0.46,-0.14,3.291.89,
-0.05,0.87,0.46,-0.42,3.782.24,
-0.05,0.87,0.46,-0.7,4.412.59,
-0.05,0.86,0.46,-0.84,4.412.80,
-0.06,0.86,0.46,-0.7,4.132.66,
-0.06,0.86,0.46,-0.7,3.643.15,
-0.06,0.86,0.46,-0.56,2.803.29,
-0.06,0.86,0.46,-0.42,2.103.50,
-0.05,0.86,0.47,-0.21,1.683.22,
-0.05,0.87,0.47,-0.21,1.542.87,
-0.05,0.87,0.47,-0.42,1.333.29,
-0.04,0.88,0.47,-0.84,1.823.22,
-0.04,0.88,0.47,-1.26,1.893.22,
-0.05,0.88,0.47,-1.68,1.963.36,
-0.05,0.88,0.46,-2.17,1.893.43,
-0.05,0.88,0.45,-2.52,2.243.64,
-0.05,0.88,0.45,-2.8,2.803.43,
-0.05,0.87,0.45,-2.94,3.713.71,
-0.06,0.87,0.46,-2.59,4.273.50,
-0.06,0.86,0.47,-1.82,4.483.78,
-0.07,0.86,0.47,-0.84,4.693.57,
-0.07,0.86,0.47,-0.14,4.553.15,
-0.06,0.87,0.47,-0.07,4.482.80,
-0.07,0.86,0.47,0.14,4.272.94,
-0.07,0.86,0.47,0.28,4.412.87,
-0.07,0.86,0.47,0.42,4.483.15,
-0.08,0.86,0.47,0.42,4.552.59,
-0.08,0.86,0.47,0.21,4.832.52,
-0.08,0.85,0.47,0,4.972.45,
-0.08,0.85,0.47,-0.14,4.762.24,
-0.08,0.85,0.47,-0.14,4.341.68,
-0.1,0.85,0.48,0.07,3.290.98,
-0.1,0.86,0.49,0.63,2.310.84,
-0.1,0.86,0.49,0.84,1.260.49,
-0.1,0.86,0.49,0.91,0.07-0.21,
-0.09,0.86,0.49,0.77,-0.63,
-0.09,0.86,0.49,0.49,-1.12,
-0.08,0.86,0.48,-0.07,-1.19,
-0.08,0.86,0.48,-0.56,-1.4,
-0.08,0.85,0.48,-0.77,-1.33,
-0.08,0.85,0.49,-0.7,-1.260.14,
-0.08,0.85,0.49,-0.56,-1.330.42,
-0.08,0.85,0.5,-0.14,-1.120.42,
-0.08,0.85,0.5,0.35,-0.910.28,
-0.07,0.84,0.5,0.7,-0.630.00,
-0.07,0.84,0.5,1.12,-0.28,
-0.07,0.84,0.5,1.33,0.280.14,
-0.07,0.84,0.49,1.33,0.770.21,
-0.07,0.84,0.5,1.33,0.980.35,
-0.07,0.84,0.49,0.98,1.191.54,
-0.07,0.84,0.49,0.7,1.191.61,
-0.08,0.84,0.49,0.56,0.982.03,
-0.08,0.84,0.5,0.77,0.842.38,
-0.07,0.85,0.5,0.91,0.772.31,
-0.07,0.84,0.5,1.12,0.562.73,
-0.07,0.84,0.5,1.19,0.213.15,
-0.06,0.83,0.5,1.33,0.353.08,
-0.06,0.83,0.5,1.54,0.423.71,
-0.05,0.83,0.5,1.96,0.563.85,
-0.06,0.83,0.5,2.45,0.703.99,
-0.06,0.84,0.5,2.87,0.774.34,
-0.06,0.85,0.5,2.94,1.054.62,
-0.06,0.86,0.51,2.87,1.194.34,
-0.06,0.86,0.5,2.73,0.914.13,
-0.07,0.85,0.5,3.08,0.773.92,
-0.08,0.86,0.51,3.64,0.423.08,
-0.07,0.86,0.51,3.78,0.632.31,
-0.07,0.86,0.51,3.5,1.541.33,
-0.06,0.84,0.51,3.36,2.940.84,
-0.06,0.84,0.5,3.5,4.550.84,
-0.06,0.85,0.5,3.43,5.670.84,
-0.06,0.85,0.5,3.85,6.301.19,
-0.06,0.86,0.49,3.99,6.721.19,
-0.07,0.86,0.49,4.48,6.931.33,
-0.07,0.86,0.49,5.18,7.141.05,
-0.08,0.86,0.48,5.39,7.280.91,
-0.08,0.86,0.48,5.53,7.140.77,
-0.08,0.86,0.47,5.32,6.580.70,
-0.09,0.85,0.48,5.11,5.810.35,
-0.09,0.85,0.46,5.46,4.900.35,
-0.09,0.85,0.45,5.74,3.990.14,
-0.09,0.85,0.46,5.88,2.520.21,
-0.09,0.86,0.47,5.6,1.400.70,
-0.09,0.87,0.48,5.11,0.560.49,
-0.09,0.87,0.5,5.32,0.140.63,
-0.08,0.87,0.5,5.81,0.420.49,
-0.07,0.86,0.48,5.88,0.91-0.07,
-0.06,0.86,0.47,5.39,1.68-0.14,
-0.04,0.85,0.47,5.04,2.940.42,
-0.04,0.84,0.47,5.88,5.250.91,
-0.05,0.84,0.47,5.67,6.511.33,
-0.04,0.84,0.47,6.58,8.261.96,
-0.05,0.85,0.47,6.65,8.962.59,
-0.05,0.85,0.47,7,8.543.08,
-0.05,0.86,0.46,7.35,7.563.57,
-0.05,0.87,0.47,7.28,6.093.50,
-0.05,0.86,0.48,7.42,5.114.20,
-0.05,0.87,0.47,8.33,4.903.99,
-0.06,0.87,0.47,8.75,5.183.57,
-0.07,0.87,0.46,8.89,5.602.94,
-0.08,0.87,0.45,9.24,6.022.52,
-0.08,0.87,0.45,9.8,6.651.82,
-0.08,0.87,0.44,9.87,7.981.54,
-0.08,0.87,0.44,9.59,9.451.54,
-0.08,0.87,0.43,9.59,10.361.05,
-0.09,0.87,0.42,9.03,10.850.84,
-0.09,0.87,0.42,8.47,10.920.98,
-0.09,0.87,0.42,7.84,10.571.12,
-0.1,0.87,0.43,7.98,10.500.42,
-0.1,0.88,0.45,8.68,9.870.49,
-0.11,0.88,0.46,9.59,9.24-0.28,
-0.1,0.89,0.48,9.94,8.40-0.63,
-0.08,0.89,0.48,9.66,7.63-1.47,
-0.06,0.89,0.48,8.96,7.00-2.17,
-0.05,0.88,0.47,8.33,6.72-2.24,
-0.04,0.88,0.47,6.93,6.51-1.54,
-0.05,0.88,0.47,5.81,7.00-0.84,
-0.05,0.87,0.47,4.34,7.630.14,
-0.05,0.87,0.49,3.5,8.191.12,
-0.06,0.85,0.49,3.01,9.031.54,
-0.06,0.83,0.48,3.5,9.802.24,
-0.05,0.83,0.48,4.27,10.292.94,
-0.04,0.81,0.47,5.46,10.503.85,
-0.04,0.81,0.47,7.63,10.994.62,
-0.04,0.81,0.47,9.94,11.345.81,
-0.04,0.82,0.46,11.83,11.556.93,
-0.05,0.83,0.46,12.74,11.348.40,
-0.05,0.84,0.46,12.95,11.279.31,
-0.06,0.85,0.46,13.09,11.3410.36,
-0.06,0.86,0.46,13.51,12.3910.99,
-0.06,0.87,0.46,14,12.6011.20,
-0.07,0.87,0.47,13.16,13.3711.48,
-0.07,0.87,0.47,11.62,13.6510.78,
-0.07,0.86,0.47,10.85,13.939.87,
-0.07,0.86,0.45,9.94,14.149.31,
-0.08,0.85,0.45,9.87,14.288.40,
-0.08,0.83,0.44,10.92,14.149.03,
-0.08,0.82,0.43,13.09,14.569.24,
-0.08,0.83,0.42,16.52,16.109.59,
-0.06,0.83,0.42,18.83,15.7510.78,
-0.06,0.85,0.43,21.42,16.0312.67,
-0.05,0.88,0.43,22.68,16.3113.72,
-0.04,0.89,0.43,24.29,17.3614.28,
-0.04,0.92,0.43,22.54,17.9915.05,
-0.02,0.91,0.43,21.28,18.9015.47,
-0.02,0.93,0.41,21.49,20.3015.33,
-0.02,0.92,0.39,20.44,20.8615.75,
-0.04,0.92,0.37,20.65,21.2115.68,
-0.06,0.91,0.34,20.51,21.3515.82,
-0.08,0.9,0.32,19.81,20.0216.17,
-0.09,0.87,0.31,20.3,19.4616.03,
-0.12,0.9,0.29,20.09,16.9415.68,
-0.11,0.89,0.28,21.49,13.6515.19,
-0.09,0.91,0.27,22.47,9.4512.46,
-0.07,0.92,0.27,22.89,4.489.66,
-0.04,0.93,0.28,23.03,1.546.65,
-0.02,0.92,0.29,23.52,0.004.48,
-0.02,0.93,0.29,23.17,-0.492.73,
-0.02,0.92,0.29,22.68,-0.562.10,
-0.01,0.91,0.31,23.03,0.351.89,
0,0.92,0.31,23.1,1.121.96,
0.05,0.92,0.31,24.71,1.331.68,
0.07,0.94,0.28,24.99,0.912.59,
0.09,0.95,0.28,25.34,0.843.01,
0.1,0.97,0.3,25.41,2.524.69,
0.08,1,0.29,24.43,3.575.88,
0.07,1,0.29,23.1,4.135.67,
0.08,0.99,0.3,21.49,7.006.51,
0.06,0.97,0.29,21.21,10.295.95,
0.05,0.95,0.29,22.12,13.305.04,
0.03,0.94,0.3,23.66,15.544.06,
0.03,0.94,0.29,25.34,17.852.66,
0.02,0.95,0.29,26.6,19.181.12,
0.01,0.98,0.31,26.81,19.950.42,
0,0.97,0.29,29.05,19.11-0.77,
-0.01,0.96,0.29,28.98,17.71-1.33,
-0.02,0.94,0.27,29.47,15.68-2.94,
0.12,1,0.24,24.36,-133.14,
0.19,1.05,0.16,18.48,-134.75,
0.23,1.02,0.12,14.14,-132.86,
0.27,1,0.12,10.92,-127.68,
0.28,1.02,0.14,9.17,-118.58,
0.28,1.1,0.18,7.42,-111.86,
0.22,1.12,0.18,5.46,-100.52,
0.21,1.17,0.17,0.77,-91.7,
0.21,1.16,0.16,-2.94,-82.53,
0.21,1.11,0.21,-5.39,-75.53,
0.17,1.06,0.28,-8.96,-70.56,
0.15,1.02,0.33,-14.56,-67.622.31,
0.13,1.01,0.37,-22.05,-65.803.50,
0.12,1.01,0.37,-31.29,-66.225.67,
0.09,1,0.37,-44.94,-67.908.12,
0.06,1.01,0.41,-55.58,-68.9511.06,
0.05,1.04,0.4,-67.9,-68.1815.26,
0.01,1.06,0.34,-83.86,-66.6425.34,
-0.04,1.07,0.3,-102.55,-64.2636.33,
-0.11,1.05,0.25,-124.95,-59.7848.79,
-0.16,0.99,0.25,-145.11,-56.7063.00,
-0.22,0.94,0.23,-164.85,-60.0675.88,
-0.3,0.92,0.28,-175.14,-70.0085.12,
-0.39,0.97,0.44,-177.94,-82.1186.80,
-0.43,1.01,0.63,-167.09,-85.3382.53,
-0.49,1.18,0.67,-147.91,-81.9773.99,
-0.58,1.42,0.51,-132.09,-78.4755.30,
-0.69,1.6,0.4,-131.04,-73.9938.78,
-0.34,1.45,0.31,-131.32,-66.1523.24,
-0.21,1.34,0.45,-120.96,-57.5411.41,
-0.13,1.3,0.56,-110.18,-53.55,
0.01,1.07,0.63,-101.43,-50.61,
0.18,1.01,0.64,-101.36,-37.24,
0.19,0.92,0.63,-96.46,-28.14,
0.17,0.89,0.55,-87.78,-24.57,
0.1,0.9,0.53,-93.45,-30.174.27,
0.05,0.79,0.57,-95.83,-34.5814.21,
-0.07,0.76,0.58,-94.22,-38.2222.05,
-0.12,0.63,0.53,-89.74,-37.9424.57,
-0.2,0.55,0.49,-78.68,-32.9721.91,
-0.16,0.53,0.46,-66.08,-27.5116.94,
-0.19,0.46,0.43,-56.35,-19.327.28,
-0.16,0.4,0.42,-47.25,-14.56,
-0.16,0.39,0.36,-33.04,-22.54,
-0.05,0.32,0.32,-17.64,-23.66,
-0.07,0.38,0.33,-12.32,-28.14,
0,0.36,0.31,-5.11,0.63-31.43,
0.05,0.36,0.33,0.7,-34.86,
0.02,0.36,0.34,6.02,-40.32,
-0.02,0.35,0.35,18.97,-42.28,
-0.06,0.37,0.41,29.05,-45.22,
-0.08,0.37,0.46,41.23,-46.97,
-0.09,0.37,0.51,53.97,-44.87,
-0.09,0.4,0.57,67.48,-39.48,
-0.06,0.47,0.65,74.48,-34.79,
-0.02,0.55,0.71,83.16,-29.26,
0.02,0.68,0.68,90.72,5.81-25.76,
0.04,0.84,0.66,91.42,12.25-24.22,
0.04,0.91,0.64,86.38,18.20-23.10,
-0.02,0.94,0.66,80.08,18.27-20.58,
-0.05,0.94,0.75,71.96,14.91-15.96,
-0.07,0.9,0.82,61.95,6.65-12.53,
-0.09,0.92,0.84,54.32,-17.99,
-0.11,0.98,0.8,44.45,-32.27,
-0.08,0.97,0.74,22.61,-46.97,
-0.05,0.91,0.67,6.86,-57.12,
-0.03,0.87,0.59,-4.2,-62.581.40,
-0.02,0.73,0.57,-7.49,-63.076.44,
-0.05,0.64,0.54,-3.43,-59.6412.11,
-0.16,0.62,0.52,8.75,-53.6917.08,
-0.26,0.7,0.48,23.31,-53.2020.37,
-0.29,0.88,0.47,31.08,-56.9123.03,
-0.27,1.1,0.33,39.97,-58.8025.27,
-0.25,1.31,0.38,40.32,-53.3422.54,
-0.2,1.37,0.54,24.36,-39.7614.00,
-0.23,1.38,0.57,1.61,-22.821.05,
-0.09,1.33,0.55,-15.47,-23.31,
0.09,1.04,0.47,-8.33,4.34-23.24,
0.22,0.86,0.36,4.34,14.07-27.09,
0.19,0.82,0.27,11.76,19.88-29.82,
0.17,0.81,0.14,21.21,21.84-29.89,
0.15,0.81,0.05,35.49,24.01-27.86,
0.12,0.89,0.14,40.81,27.79-24.71,
-0.01,0.99,0.25,33.18,20.02-18.97,
-0.05,1.07,0.41,25.13,12.81-15.89,
0.03,1.1,0.46,23.31,7.91-10.36,
0.02,1.04,0.4,29.75,-11.97,
0.07,0.96,0.4,41.93,-24.504.27,
0.13,0.92,0.39,53.76,-34.098.05,
0.17,0.91,0.36,60.9,-32.279.80,
0.16,0.91,0.3,63.91,-29.059.45,
0.13,0.93,0.27,61.46,-23.317.63,
0.08,0.95,0.25,55.93,-17.711.47,
0.05,0.94,0.25,47.39,-19.25,
0.03,0.91,0.26,37.66,-20.58,
0,0.88,0.34,30.38,-20.86,
-0.05,0.88,0.39,21.91,-20.58,
-0.03,0.84,0.39,22.26,5.32-22.40,
-0.05,0.79,0.39,23.52,9.80-23.80,
-0.09,0.79,0.37,25.83,8.54-24.29,
-0.09,0.78,0.37,26.25,3.50-23.24,
-0.09,0.79,0.37,28.49,-23.52,
-0.06,0.88,0.28,27.37,-26.46,
-0.02,0.94,0.26,29.12,-29.47,
-0.01,0.94,0.28,27.58,-39.76,
0.05,0.91,0.28,22.68,-51.87,
0.08,0.89,0.28,19.67,-55.02,
0.12,0.89,0.31,20.02,-51.52,
0.14,0.88,0.49,17.99,-45.92,
0.17,0.88,0.39,13.58,-41.09,
0.21,0.87,0.36,7,-36.54,
0.23,0.84,0.29,-0.07,-26.25,
0.22,0.77,0.26,-3.08,0.14-11.13,
0.2,0.71,0.23,-2.94,9.80-12.11,
0.16,0.66,0.2,-1.75,16.45-11.69,
0.13,0.65,0.17,1.12,21.35-10.57,
0.1,0.66,0.19,2.87,23.24-6.65,
0.05,0.75,0.21,-0.63,19.18-2.80,
0.03,0.79,0.24,-7.7,7.56-0.07,
0.01,0.77,0.3,-8.89,-0.842.45,
-0.03,0.76,0.41,-11.2,-11.062.94,
-0.03,0.76,0.51,-16.66,-15.961.19,
-0.07,0.77,0.52,-17.78,-17.99,
-0.1,0.8,0.44,-16.03,-20.3,
-0.12,0.82,0.35,-12.81,-21.42,
-0.14,0.84,0.32,-14.84,4.90-26.18,
-0.16,0.84,0.26,-27.79,8.82-32.83,
-0.13,0.85,0.18,-36.82,2.80-35.42,
-0.03,0.79,0.22,-40.25,-42.07,
0.04,0.71,0.3,-37.03,-49.49,
0.07,0.67,0.35,-31.15,-55.79,
0.13,0.62,0.36,-24.43,-56.63,
0.17,0.61,0.28,-17.08,-49.98,
0.18,0.65,0.19,-12.74,-41.09,
0.16,0.69,0.16,-14.21,-33.11,
0.16,0.74,0.17,-18.62,-29.82,
0.15,0.76,0.29,-22.96,-31.5,
0.18,0.75,0.41,-23.31,-37.1,
0.23,0.8,0.49,-18.76,-41.16,
0.27,0.86,0.48,-9.1,-41.44,
0.3,0.87,0.5,-1.26,-38.36,
0.3,0.9,0.45,0.28,-33.88,
0.28,0.89,0.39,-3.43,-27.44,
0.25,0.92,0.32,-15.26,-20.37,
0.19,0.99,0.3,-30.66,-7.77,
0.08,1.14,0.38,-52.5,-2.733.71,
0.01,1.32,0.46,-91.28,-8.4716.73,
-0.03,1.46,0.57,-122.64,-14.0035.84,
-0.09,1.57,0.69,-148.05,-21.0057.26,
-0.24,1.68,0.8,-167.72,-36.4778.19,
-0.31,1.72,0.84,-183.61,-54.8886.59,
-0.35,1.71,0.83,-197.89,-71.4786.94,
-0.35,1.6,0.78,-211.68,-77.4981.69,
-0.35,1.42,0.84,-205.59,-71.9676.79,
-0.38,1.27,0.93,-181.23,-56.1471.75,
-0.49,1.43,1.02,-165.2,-31.5060.20,
-0.23,1.2,0.93,-150.78,-2.1740.11,
-0.2,1.17,0.9,-141.47,15.5422.54,
-0.14,1.14,0.86,-135.45,14.077.70,
0.05,1.09,0.82,-124.88,12.25-0.49,
0.07,1.14,0.79,-117.95,6.86-6.86,
0.12,1.14,0.79,-113.4,-11.41,
0.19,1.09,0.74,-110.11,-14.21,
0.23,0.93,0.69,-95.83,2.03-7.00,
0.15,0.72,0.62,-73.85,8.82-4.97,
0.06,0.45,0.55,-51.24,11.06-4.34,
-0.01,1.06,0.52,-39.06,6.5812.04,
-0.06,0.02,0.38,-21,5.5313.79,
-0.05,-0.02,0.34,11.27,6.728.75,
-0.05,-0.08,0.3,37.03,9.94-0.21,
-0.08,-0.17,0.27,61.32,10.43-7.56,
-0.11,-0.22,0.26,78.82,8.89-15.75,
-0.15,-0.27,0.26,94.99,4.69-26.95,
-0.17,-0.27,0.26,105.84,-39.76,
-0.17,-0.2,0.24,108.64,-55.93,
-0.11,-0.16,0.17,113.05,-70.98,
-0.12,0.01,0.12,116.55,-67.27,
-0.05,0.05,0.15,110.25,-67.83,
0,-0.02,0.16,114.38,-69.51,
0.06,0.01,0.17,129.71,-72.17,
0.11,0.13,0.23,139.72,-75.18,
0.13,0.26,0.25,148.75,-75.32,
0.13,0.52,0.3,155.89,-73.92,
0.18,0.69,0.43,162.96,-71.4,
0.13,0.85,0.55,159.95,-72.24,
0.1,0.99,0.62,150.71,-71.12,
0.17,1.07,0.69,136.71,-61.18,
0.27,1.07,0.77,116.69,-42.84,
0.33,0.92,0.76,101.08,-22.33,
0.35,0.8,0.75,92.33,10.50-12.46,
0.31,0.8,0.66,87.01,23.17-6.23,
0.26,0.79,0.65,78.89,28.772.73,
0.19,0.84,0.59,66.71,29.0510.99,
0.08,0.86,0.53,58.03,22.8217.43,
0,0.88,0.56,43.33,15.6121.07,
-0.02,0.8,0.71,29.12,11.9024.78,
-0.07,0.81,0.68,22.96,15.9628.07,
-0.15,0.87,0.78,11.9,22.8931.57,
-0.21,0.95,0.82,5.32,31.9235.42,
-0.21,1.11,0.75,7.14,36.9640.95,
-0.18,1.35,0.48,11.76,34.1643.05,
-0.24,1.72,0.15,20.09,25.1341.65,
-0.27,1.67,0.02,15.33,15.4740.95,
-0.29,1.85,0.08,-0.42,3.6436.47,
-0.11,1.58,0.18,-35.07,2.1728.91,
-0.14,1.55,0.24,-23.66,-0.9827.30,
0.16,1.36,0.37,-36.54,-6.7929.54,
0.23,1.24,0.69,-46.69,-4.2031.29,
0.29,1.41,0.83,-51.73,5.5337.38,
0.29,1.5,0.8,-62.16,14.3539.13,
0.15,1.4,0.66,-60.97,26.2540.04,
0.04,1.25,0.38,-39.97,35.9141.72,
-0.01,1.15,0.2,-17.71,42.2138.43,
-0.01,1.11,0.15,1.05,42.4928.84,
0.04,1.04,0.15,21.49,33.6015.26,
0.09,1.03,0.15,41.16,19.814.90,
0.09,1.06,0.16,54.81,3.36-4.83,
0.02,1.08,0.21,61.74,-16.45,
-0.03,1.08,0.33,57.82,-24.85,
-0.03,1.1,0.61,52.01,0.84-23.94,
-0.04,1.18,0.6,43.26,9.94-29.89,
-0.06,1.23,0.59,33.95,14.35-37.10,
-0.11,1.19,0.54,23.52,8.33-40.11,
-0.05,1.04,0.47,20.65,-43.12,
0.02,0.9,0.37,25.41,-48.86,
0.06,0.79,0.3,28.63,-49.49,
0.1,0.69,0.27,31.29,-46.76,
0.13,0.62,0.25,33.11,-41.51,
0.15,0.57,0.2,36.12,-37.8,
0.16,0.57,0.2,38.29,-34.16,
0.17,0.6,0.26,18.55,-30.31,
0.22,0.6,0.35,27.93,1.68-22.68,
0.19,0.7,0.31,19.25,-24.71,
0.22,0.67,0.37,12.25,-25.13,
0.22,0.63,0.43,6.37,-22.19,
0.21,0.72,0.49,-3.01,0.14-17.22,
0.24,0.8,0.51,-9.8,7.56-17.36,
0.23,0.86,0.48,-12.81,16.59-16.31,
0.19,0.85,0.39,-13.44,23.59-17.57,
0.14,0.81,0.32,-14.84,25.62-19.95,
0.11,0.75,0.26,-17.5,22.33-22.61,
0.13,0.69,0.2,-20.58,17.85-25.06,
0.13,0.66,0.19,-23.66,12.32-26.81,
0.1,0.63,0.25,-27.65,9.03-26.32,
0.09,0.6,0.29,-28.21,12.95-21.70,
0.05,0.62,0.36,-27.37,17.64-16.45,
0.02,0.67,0.4,-25.9,19.60-11.06,
0,0.73,0.41,-22.75,16.38-6.23,
0.01,0.76,0.39,-19.88,11.20-2.17,
0.03,0.76,0.35,-18.9,7.421.54,
0.05,0.73,0.31,-17.29,5.673.15,
0.06,0.66,0.29,-15.26,5.113.36,
0.08,0.65,0.3,-16.24,5.743.15,
0.13,0.72,0.29,-24.36,3.852.10,
0.14,0.79,0.32,-41.51,-0.421.05,
0.17,0.83,0.44,-53.76,-4.690.91,
0.1,0.96,0.56,-70.42,-11.064.06,
0.06,1.08,0.58,-80.57,-13.6512.74,
0.02,1.28,0.54,-92.05,-10.2222.05,
-0.07,1.38,0.54,-111.86,-2.9433.81,
-0.16,1.4,0.53,-138.04,0.4246.62,
-0.31,1.43,0.58,-163.52,-3.9257.68,
-0.39,1.46,0.66,-178.5,-18.6963.14,
-0.41,1.46,0.74,-187.11,-42.3564.26,
-0.37,1.42,0.79,-184.17,-61.7460.20,
-0.24,1.43,0.83,-179.97,-65.5956.49,
-0.07,1.33,0.83,-183.4,-48.3055.02,
-0.08,1.22,0.85,-180.67,-26.6047.95,
-0.1,1.03,0.87,-165.76,-11.1341.86,
-0.12,0.88,0.96,-144.06,-3.2934.23,
-0.07,0.87,0.94,-123.06,5.7423.80,
-0.04,0.94,0.87,-101.29,10.5720.65,
-0.02,0.89,0.81,-84.84,8.2618.97,
0.01,0.78,0.76,-66.57,2.7314.28,
0.06,0.73,0.74,-46.27,-2.249.52,
0.08,0.69,0.73,-29.12,-5.605.60,
0.07,0.64,0.74,-10.92,-8.611.68,
0.01,0.53,0.71,1.4,-13.02,
-0.01,0.45,0.66,14.63,-18.34,
-0.05,0.38,0.59,24.43,-21.28,
-0.08,0.29,0.5,39.62,-25.27,
-0.08,0.21,0.42,54.53,-30.66,
-0.07,0.2,0.35,65.03,-38.5,
-0.02,0.19,0.35,77.98,-42.91,
0.03,0.14,0.34,89.53,-44.45,
0.04,0.13,0.36,98.91,-45.92,
0.04,0.09,0.39,110.39,-44.1,
-0.01,0.16,0.46,121.45,-43.33,
-0.02,0.16,0.52,129.78,2.38-44.17,
0,0.22,0.57,134.61,5.95-44.73,
0.03,0.33,0.52,137.69,9.24-44.45,
0.06,0.38,0.42,132.23,14.56-45.22,
0.11,0.43,0.32,121.17,25.76-48.72,
0.14,0.52,0.25,111.44,38.08-49.56,
0.18,0.61,0.26,98.77,49.49-45.57,
0.23,0.59,0.34,92.75,58.66-41.37,
0.23,0.63,0.43,90.16,63.28-36.47,
0.2,0.64,0.5,91.98,65.24-30.52,
0.12,0.66,0.55,94.36,58.38-21.77,
0.07,0.67,0.52,96.18,46.97-10.78,
0.01,0.71,0.48,95.69,35.490.28,
-0.05,0.71,0.45,92.47,25.1310.15,
-0.08,0.72,0.44,88.76,15.6116.73,
-0.11,0.75,0.45,86.03,6.6520.65,
-0.16,0.77,0.48,80.99,-0.7722.12,
-0.19,0.85,0.47,74.41,-7.2120.93,
-0.14,0.93,0.46,57.4,-12.0418.27,
-0.11,0.9,0.52,41.58,-17.5716.17,
-0.13,0.88,0.72,32.9,-19.5317.99,
-0.14,0.96,0.82,25.9,-17.3622.19,
-0.16,1.17,0.91,18.97,-13.3026.67,
-0.27,1.36,0.78,4.34,-13.3731.50,
-0.38,1.49,0.67,-24.99,-26.7433.88,
-0.23,1.35,0.42,-28.63,-43.8935.84,
-0.09,1.35,-0.03,-9.38,-46.2036.33,
0.05,1.4,0.08,-9.45,-44.8036.19,
0.05,1.5,0.47,-19.88,-33.7432.83,
0.08,1.57,0.34,-11.83,4.3424.01,
0.22,1.7,0.23,-19.67,18.7621.77,
0.26,1.62,0.77,-67.41,15.0528.14,
0.31,1.59,0.97,-91.35,2.6632.34,
0.39,1.46,0.87,-100.1,-13.2333.53,
0.28,1.14,0.67,-80.22,-3.7833.18,
0.12,0.89,0.37,-41.09,19.1837.59,
-0.11,0.83,0.31,-11.69,23.3835.98,
-0.06,0.85,0.24,21.49,14.8428.42,
-0.1,0.99,0.2,52.15,1.4716.80,
-0.06,1.07,0.36,68.04,-8.614.83,
-0.03,1.17,0.32,74.06,-19.18,
0.03,1.17,0.34,73.99,-30.45,
0.12,1.13,0.39,69.65,-36.89,
0.25,1.06,0.46,62.86,-32.34,
0.33,1,0.52,36.05,3.78-21.91,
0.34,0.97,0.49,43.82,19.60-19.95,
0.3,0.93,0.41,38.85,32.48-17.92,
0.22,0.9,0.36,34.79,39.20-16.10,
0.12,0.87,0.32,29.47,36.75-13.44,
0.04,0.82,0.28,24.36,26.67-10.92,
-0.01,0.76,0.24,21.63,17.43-9.17,
-0.05,0.73,0.22,21.56,7.49-8.40,
-0.06,0.74,0.24,19.39,-11.13,
-0.04,0.71,0.3,19.95,-18.55,
-0.03,0.71,0.35,17.01,-21.63,
-0.01,0.74,0.41,12.32,-19.46,
0.02,0.74,0.39,7.77,3.22-12.81,
0.05,0.73,0.37,0.77,12.88-13.86,
0.09,0.71,0.33,-9.73,18.27-15.33,
0.14,0.67,0.23,-16.66,20.23-17.64,
0.19,0.6,0.18,-20.37,20.30-18.62,
0.19,0.51,0.2,-20.79,21.14-18.55,
0.17,0.51,0.29,-22.54,21.63-19.88,
0.13,0.54,0.36,-24.36,20.02-20.86,
0.11,0.66,0.35,-24.78,15.33-22.12,
0.1,0.79,0.4,-24.71,11.20-22.54,
0.1,0.9,0.36,-24.43,11.83-21.63,
0.06,0.91,0.37,-27.23,14.28-20.23,
0.04,0.78,0.28,-27.93,20.79-18.62,
0.06,0.7,0.21,-27.23,25.06-17.43,
0.1,0.63,0.22,-31.78,23.45-15.89,
0.14,0.57,0.23,-32.62,22.26-13.58,
0.14,0.56,0.34,-31.92,19.53-11.90,
0.11,0.56,0.44,-29.19,16.24-11.13,
0.08,0.68,0.46,-26.74,12.18-10.71,
0.03,0.78,0.43,-24.99,7.14-12.04,
-0.03,0.87,0.38,-27.02,4.13-11.48,
-0.05,0.9,0.29,-36.75,1.75-8.82,
-0.06,0.92,0.33,-49.84,1.19-3.78,
-0.1,0.97,0.53,-66.22,2.944.20,
-0.09,1.15,0.62,-77.49,3.1516.73,
-0.06,1.41,0.62,-86.87,0.6327.30,
-0.11,1.54,0.67,-106.47,-10.7138.99,
-0.14,1.52,0.64,-126.21,-25.2751.10,
-0.17,1.39,0.63,-146.72,-37.6661.32,
-0.21,1.33,0.67,-158.9,-48.6566.01,
-0.26,1.26,0.75,-164.22,-58.5966.43,
-0.27,1.23,0.77,-161.84,-64.1961.04,
-0.25,1.21,0.78,-161.77,-62.2352.85,
-0.29,1.15,0.77,-159.88,-57.6144.24,
-0.27,1.07,0.86,-153.72,-50.2637.45,
-0.19,1.02,0.96,-142.52,-41.8631.15,
-0.13,1.04,0.88,-124.67,-36.4724.85,
-0.04,1.04,0.81,-103.46,-28.4917.78,
0.04,0.97,0.8,-78.89,-15.4013.02,
0.07,0.91,0.85,-61.88,-6.657.49,
0.1,0.86,0.89,-47.04,-6.721.33,
0.16,0.81,0.91,-27.44,-10.57,
0.16,0.79,0.92,-16.1,-11.2,
0.16,0.75,0.84,-7.42,-6.37,
0.14,0.65,0.75,-0.14,2.24-1.96,
0.14,0.53,0.64,11.41,8.89-2.31,
0.09,0.42,0.54,24.99,13.37-3.50,
0.06,0.29,0.46,46.27,15.40-5.11,
0.03,0.23,0.41,60.13,15.47-9.24,
0.01,0.17,0.39,71.4,14.21-14.07,
-0.01,0.18,0.38,80.43,12.18-18.76,
-0.05,0.22,0.37,86.87,11.34-22.54,
-0.06,0.23,0.4,95.83,13.58-24.29,
-0.05,0.21,0.48,103.6,17.78-25.48,
-0.06,0.24,0.52,119,22.19-27.72,
-0.01,0.33,0.53,125.37,25.76-29.68,
0.02,0.46,0.5,124.74,25.69-31.01,
0.04,0.49,0.45,120.96,23.52-29.47,
0.02,0.43,0.39,111.44,20.23-29.26,
-0.03,0.44,0.31,105.7,17.57-28.28,
-0.04,0.51,0.24,98.91,14.98-24.78,
-0.03,0.51,0.2,92.82,11.27-19.67,
-0.02,0.51,0.19,87.36,6.02-16.03,
-0.03,0.49,0.25,85.26,0.98-13.23,
-0.03,0.47,0.32,87.71,-13.65,
-0.03,0.5,0.38,95.06,0.35-10.57,
-0.07,0.58,0.41,100.24,4.06-8.47,
-0.08,0.63,0.42,104.58,6.65-4.90,
-0.06,0.67,0.45,105.98,8.68-2.31,
-0.04,0.72,0.45,107.1,9.66-1.47,
-0.04,0.73,0.45,108.29,7.77-3.43,
-0.02,0.75,0.48,107.1,5.53-6.02,
0.02,0.75,0.49,104.72,5.11-8.54,
0.01,0.81,0.52,100.66,4.55-10.08,
-0.03,0.89,0.55,83.16,-8.89,
-0.09,0.93,0.53,65.03,-13.37,
-0.18,1,0.52,42,-23.171.19,
-0.23,0.98,0.55,18.48,-38.016.79,
-0.19,0.99,0.6,-4.9,-50.5410.78,
-0.07,0.91,0.78,-24.64,-50.8916.94,
-0.03,1,0.77,-27.72,-40.5325.20,
-0.01,1.2,0.58,-24.64,-34.7930.24,
-0.01,1.21,0.42,-25.27,-34.1632.69,
-0.02,1.11,0.18,-16.24,-37.9436.12,
0.1,1.11,-0.13,11.55,-29.5439.41,
0.13,1.25,0.07,5.95,-16.5943.05,
0.17,1.43,0.4,0.42,3.1542.63,
0.29,1.54,0.45,7.42,21.4940.88,
0.31,1.78,0.39,11.97,26.1144.03,
0.28,1.98,0.53,-14.77,19.8144.87,
0.28,1.84,0.78,-60.83,8.4749.00,
0.25,1.52,0.83,-94.85,-6.3750.33,
0.16,1.26,0.64,-95.13,-7.0049.35,
0.03,1.07,0.37,-65.17,-6.0248.86,
-0.12,0.91,0.27,-41.16,-6.5845.64,
-0.18,0.84,0.16,-13.3,-6.5138.36,
-0.19,0.84,0.11,18.34,-1.9622.96,
-0.2,0.94,0.14,40.88,0.497.56,
-0.12,1,0.2,54.88,-8.54,
-0.04,1.06,0.2,61.32,-25.41,
0.01,1.07,0.23,61.32,0.56-36.05,
0.09,1.04,0.32,57.12,3.43-40.95,
0.13,1.14,0.37,47.39,6.02-41.09,
0.16,1.28,0.34,34.51,1.89-37.59,
0.15,1.28,0.36,20.37,-42.28,
0.14,1.2,0.43,8.75,-44.52,
0.19,1.05,0.44,3.29,-43.47,
0.25,0.93,0.41,8.05,-40.11,
0.23,0.85,0.41,12.18,-38.29,
0.2,0.73,0.42,13.23,-36.12,
0.15,0.67,0.39,12.81,-33.95,
0.06,0.65,0.34,11.9,-32.27,
-0.03,0.7,0.28,4.41,-32.76,
-0.05,0.75,0.21,-7,-34.65,
-0.01,0.72,0.19,-17.43,-37.52,
0.06,0.62,0.19,-22.61,-38.99,
0.1,0.53,0.24,-24.22,-41.23,
0.13,0.48,0.33,-25.83,-43.89,
0.15,0.46,0.4,-23.38,-43.33,
0.13,0.5,0.44,-17.36,-43.47,
0.14,0.59,0.4,-5.81,-42.98,
0.16,0.72,0.36,2.24,-40.46,
0.15,0.84,0.3,-0.7,1.40-39.69,
0.18,0.9,0.23,-9.45,4.76-38.92,
0.25,0.85,0.22,-21.63,2.94-33.81,
0.29,0.81,0.25,-52.43,0.84-26.11,
0.32,0.73,0.29,-46.9,3.15-17.08,
0.33,0.69,0.29,-49.21,6.72-7.49,
0.3,0.64,0.34,-48.86,14.84-0.70,
0.25,0.64,0.36,-49.21,22.541.33,
0.19,0.56,0.35,-45.92,30.87-0.42,
0.09,0.46,0.29,-36.05,39.97-4.06,
0,0.41,0.29,-25.34,45.99-8.96,
-0.07,0.45,0.25,-23.8,48.65-13.72,
-0.1,0.6,0.27,-30.45,42.63-17.78,
-0.18,0.81,0.38,-44.59,25.27-15.68,
-0.16,1.17,0.55,-57.05,7.42-4.34,
-0.12,1.52,0.63,-63,-9.3111.20,
-0.13,1.73,0.65,-76.37,-23.4529.05,
-0.09,1.75,0.63,-109.55,-39.2752.85,
-0.18,1.51,0.65,-128.38,-52.1570.84,
-0.17,1.37,0.75,-147.28,-64.1982.32,
-0.13,1.36,0.9,-160.44,-73.5787.22,
-0.17,1.44,0.99,-167.44,-76.4485.54,
-0.18,1.41,0.98,-170.24,-68.1878.96,
-0.18,1.37,0.98,-169.26,-49.4270.42,
-0.18,1.27,0.95,-174.16,-29.3361.25,
-0.12,1.18,0.93,-170.73,-12.8855.16,
-0.08,1.15,0.85,-158.55,-5.5345.01,
0.03,1.02,0.88,-144.41,0.9134.23,
0.08,0.95,0.87,-124.18,9.4524.92,
0.1,0.87,0.83,-103.11,10.7118.69,
0.14,0.76,0.79,-77.63,8.7513.72,
0.14,0.69,0.63,-55.37,6.519.87,
0.11,0.66,0.74,-37.38,2.459.10,
0.1,0.62,0.75,-22.05,-0.708.89,
0.07,0.6,0.77,-9.45,-2.106.58,
0.04,0.59,0.77,2.66,-1.404.06,
0.02,0.51,0.73,19.81,1.541.82,
0,0.45,0.67,30.52,6.09-1.47,
0.02,0.37,0.55,43.61,11.06-7.14,
0.01,0.28,0.44,54.04,14.91-10.43,
0.02,0.2,0.37,63.07,17.99-15.89,
0.02,0.15,0.33,74.69,17.99-21.77,
0.01,0.12,0.34,87.85,16.17-27.72,
0.02,0.1,0.34,101.57,15.47-32.76,
0.04,0.12,0.25,106.12,16.38-36.54,
0,0.18,0.38,108.01,17.36-39.41,
0.02,0.2,0.37,110.39,19.81-40.67,
0.04,0.21,0.34,115.71,22.61-39.69,
0.02,0.25,0.34,119.98,23.24-38.57,
0.03,0.27,0.32,125.02,24.64-34.30,
0.05,0.34,0.29,123.83,28.28-30.52,
0.03,0.41,0.25,119.28,27.86-28.42,
0,0.47,0.25,113.4,23.45-26.53,
0,0.54,0.28,110.95,16.87-23.31,
0.01,0.59,0.31,108.15,8.12-20.65,
0.03,0.63,0.33,109.69,2.45-18.27,
0.03,0.7,0.38,109.41,0.14-17.29,
0.06,0.71,0.47,105.42,2.03-14.91,
0.09,0.7,0.51,104.37,6.44-9.45,
0.07,0.72,0.55,102.13,9.94-3.57,
0.03,0.72,0.52,99.82,10.920.91,
0.04,0.78,0.49,97.65,10.503.22,
0.06,0.83,0.41,88.27,8.124.41,
0.07,0.86,0.36,77.21,3.227.21,
0.07,0.87,0.43,69.16,-1.2610.29,
0.05,0.93,0.51,64.75,-5.7413.58,
-0.02,1.01,0.58,54.67,-13.5815.75,
-0.13,1.07,0.64,38.64,-28.6318.20,
-0.24,1.02,0.77,22.4,-39.6221.91,
-0.29,1.06,0.77,3.43,-46.0624.29,
-0.32,1.09,0.81,-12.74,-47.6727.65,
-0.23,1.14,0.78,-17.08,-39.5530.80,
-0.13,1.22,0.71,-16.8,-30.6628.56,
-0.06,1.3,0.56,-23.38,-28.7023.03,
0.05,1.25,0.26,-19.39,-26.2518.90,
0.09,1.32,-0.02,-5.74,-20.9316.10,
0.09,1.36,0.06,-13.23,-11.5515.40,
0.15,1.35,0.45,-8.26,14.0016.17,
0.19,1.37,0.6,-1.82,42.6315.47,
0.24,1.59,0.6,5.25,57.9619.67,
0.35,1.8,0.56,-1.12,34.4424.36,
0.4,1.76,0.67,-31.99,5.6731.15,
0.43,1.52,0.74,-64.75,-12.6037.73,
0.34,1.19,0.67,-62.58,-14.4244.80,
0.21,0.98,0.46,-43.26,-8.6149.77,
0.08,0.84,0.25,-12.32,-0.9149.56,
0,0.74,0.22,19.81,4.9044.87,
-0.09,0.91,0.22,45.15,12.6731.08,
-0.09,1.08,0.22,60.55,14.4912.67,
-0.04,1.22,0.26,62.93,12.88-6.51,
-0.06,1.32,0.36,55.51,13.02-23.73,
0.01,1.19,0.34,47.32,18.27-34.86,
0.08,1.07,0.3,41.16,16.59-38.29,
0.14,1.02,0.27,37.38,11.55-35.63,
0.16,0.97,0.27,36.82,6.44-31.01,
0.16,0.91,0.26,38.08,2.94-26.74,
0.17,0.84,0.25,40.6,-23.24,
0.12,0.81,0.31,38.99,-26.25,
0.07,0.76,0.37,34.37,-29.96,
0.04,0.76,0.38,29.47,-33.6,
0.01,0.79,0.39,23.1,-38.29,
0.02,0.79,0.4,16.66,-38.43,
0.07,0.77,0.37,9.38,-31.99,
0.12,0.73,0.32,8.82,7.35-28.70,
0.16,0.7,0.27,7.35,13.02-24.92,
0.2,0.65,0.22,5.04,17.50-19.25,
0.23,0.62,0.19,1.75,18.06-14.77,
0.23,0.61,0.18,-2.73,15.33-11.20,
0.24,0.57,0.19,-5.74,15.05-9.10,
0.2,0.59,0.23,-10.78,14.56-7.98,
0.16,0.57,0.34,-17.99,14.91-9.10,
0.17,0.58,0.35,-21.98,16.10-11.20,
0.21,0.67,0.36,-20.93,18.62-12.67,
0.25,0.78,0.43,-21.56,25.69-13.44,
0.27,0.85,0.42,-21.14,34.79-12.46,
0.21,0.87,0.36,-18.27,42.63-11.34,
0.16,0.83,0.22,-16.17,49.28-10.01,
0.1,0.78,0.1,-16.59,50.68-8.96,
0.06,0.74,0.1,-25.9,42.98-7.42,
0.08,0.69,0.12,-34.16,30.45-5.67,
0.08,0.65,0.21,-39.62,24.15-3.57,
0.06,0.64,0.31,-40.74,20.65-1.68,
0.04,0.65,0.38,-37.94,20.86-0.42,
0.02,0.69,0.44,-36.82,23.03-0.70,
0,0.7,0.39,-33.32,23.59-1.68,
-0.03,0.71,0.35,-29.19,22.82-2.17,
0,0.75,0.26,-27.44,22.61-1.12,
0.03,0.8,0.18,-30.73,23.173.78,
0.01,0.87,0.21,-51.1,21.919.24,
-0.06,0.95,0.33,-70.49,17.0117.15,
-0.08,1.09,0.5,-89.46,8.2628.49,
-0.03,1.37,0.56,-105.07,-0.3542.00,
-0.06,1.52,0.61,-125.51,-10.4354.04,
-0.2,1.57,0.68,-146.37,-26.4666.43,
-0.34,1.59,0.72,-167.02,-42.1474.55,
-0.41,1.64,0.79,-183.61,-59.5775.88,
-0.46,1.55,0.87,-188.65,-74.4172.45,
-0.41,1.49,0.83,-187.53,-83.1670.91,
-0.38,1.37,0.84,-187.04,-76.4457.05,
-0.35,1.28,0.91,-179.69,-60.2050.19,
-0.25,1.21,1.02,-171.43,-39.8345.85,
-0.08,1.17,0.95,-155.19,-26.6039.06,
0.04,1.1,0.91,-137.9,-18.6230.17,
0.12,1.06,0.91,-118.93,-7.9822.19,
0.2,0.97,0.88,-99.33,1.4015.05,
0.25,0.89,0.83,-87.85,8.759.73,
0.3,0.76,0.8,-70.49,12.535.81,
0.26,0.73,0.76,-45.01,12.604.62,
0.25,0.67,0.75,-24.01,14.424.48,
0.17,0.59,0.74,-8.47,13.936.09,
0.1,0.52,0.7,4.06,13.232.45,
0.02,0.36,0.62,15.54,12.18-1.33,
-0.01,0.26,0.54,31.08,12.67-5.46,
-0.04,0.16,0.45,46.97,13.37-4.48,
-0.06,0.05,0.37,58.31,14.07-10.99,
-0.08,0.03,0.33,71.19,12.46-18.48,
-0.09,0.04,0.33,80.92,9.38-26.67,
-0.06,0.04,0.32,87.85,6.23-36.68,
-0.06,0.11,0.31,98.49,4.20-42.42,
-0.03,0.1,0.31,105.91,2.24-46.27,
-0.01,0.16,0.35,108.85,1.19-49.00,
0.01,0.17,0.33,115.36,0.84-49.07,
0.03,0.22,0.31,117.18,2.45-48.93,
0.07,0.23,0.3,120.12,6.37-47.18,
0.04,0.29,0.32,120.26,8.68-45.64,
0.03,0.3,0.35,117.25,10.29-43.33,
-0.01,0.38,0.4,114.94,9.24-41.30,
0,0.42,0.42,117.53,8.89-37.10,
-0.01,0.58,0.38,120.19,8.96-33.04,
0.01,0.68,0.38,122.22,8.68-28.77,
0.02,0.79,0.45,123.9,7.49-24.57,
0.08,0.87,0.52,125.02,7.00-21.91,
0.11,0.87,0.6,123.2,5.74-18.34,
0.11,0.87,0.63,112.49,5.25-14.77,
0.09,0.83,0.58,104.37,4.90-10.08,
0.08,0.83,0.52,94.85,4.97-3.50,
0.04,0.83,0.49,82.25,1.333.08,
-0.05,0.77,0.47,70.21,-6.1611.69,
-0.1,0.72,0.41,62.93,-18.9018.55,
-0.13,0.75,0.39,60.34,-27.3023.10,
-0.09,0.79,0.44,52.78,-31.8525.83,
-0.13,0.84,0.56,45.78,-32.7625.90,
-0.09,0.94,0.71,36.61,-29.4725.90,
-0.09,1.12,0.8,29.68,-15.8226.67,
-0.13,1.31,0.75,14.49,-8.4027.72,
-0.2,1.45,0.68,-6.93,-8.8228.84,
-0.28,1.47,0.44,-17.78,-17.7130.73,
-0.17,1.46,0.12,-17.08,-24.9231.36,
-0.1,1.55,0.12,-19.04,-33.8828.77,
0.08,1.48,0.27,-21.7,-29.4025.20,
0.33,1.56,0.41,-1.47,-2.3118.69,
0.47,1.84,0.32,11.83,19.6717.08,
0.52,1.83,0.6,-11.76,32.3416.80,
0.47,1.68,0.87,-53.34,30.3124.99,
0.39,1.43,0.79,-73.78,20.5131.29,
0.13,1.11,0.57,-65.66,14.9134.23,
0.11,0.98,0.4,-23.31,12.2534.65,
-0.02,0.93,0.25,-8.68,3.4331.50,
-0.07,0.9,0.19,21.28,-5.8824.57,
-0.08,0.97,0.21,48.09,-8.3314.91,
-0.06,1.1,0.22,68.6,-5.53,
-0.01,1.22,0.24,79.24,1.54-11.90,
-0.03,1.29,0.28,72.87,6.79-23.10,
0.02,1.2,0.29,58.87,9.80-29.26,
0.03,1.12,0.3,44.59,7.49-30.45,
0.09,1.02,0.33,31.29,5.25-28.49,
0.11,0.95,0.31,22.82,5.39-25.97,
0.11,0.86,0.3,16.59,6.02-23.87,
0.12,0.78,0.25,16.03,7.14-22.40,
0.12,0.74,0.21,15.33,6.30-21.77,
0.08,0.68,0.19,11.69,7.84-21.84,
0.05,0.62,0.17,11.62,11.69-22.75,
0.01,0.57,0.17,13.58,14.07-24.78,
-0.04,0.56,0.2,14.77,14.70-27.72,
-0.09,0.6,0.25,15.47,13.72-29.33,
-0.06,0.67,0.28,16.8,10.78-29.68,
-0.01,0.8,0.3,17.43,7.49-29.40,
0.05,0.9,0.32,14.42,2.17-27.58,
0.13,0.94,0.33,9.8,-28.77,
0.2,0.93,0.31,2.94,-27.72,
0.21,0.84,0.3,-8.47,-25.06,
0.26,0.75,0.24,-19.18,-19.53,
0.29,0.64,0.21,-29.33,-12.46,
0.31,0.5,0.32,-35.98,10.57-10.15,
0.26,0.41,0.45,-38.5,24.64-10.57,
0.24,0.46,0.46,-36.82,35.70-13.93,
0.17,0.66,0.37,-30.17,43.96-22.40,
0.08,0.91,0.31,-23.03,45.15-26.25,
0.04,1.08,0.31,-25.9,35.07-26.18,
0.04,1.12,0.31,-36.05,20.79-22.40,
0.07,1.01,0.24,-49.77,7.14-14.91,
0.09,0.82,0.24,-58.31,-8.89,
0.11,0.69,0.28,-63.98,-10.364.27,
0.1,0.67,0.4,-71.4,-13.3011.27,
0.13,0.69,0.49,-77.56,-9.7313.16,
0.16,0.72,0.51,-83.16,-2.1011.34,
0.14,0.7,0.45,-87.29,9.527.21,
0.09,0.62,0.34,-89.67,22.403.71,
0,0.48,0.15,-93.38,30.240.84,
-0.06,0.33,0.14,-97.72,36.68-0.63,
-0.12,0.33,0.18,-103.74,37.590.14,
-0.27,0.47,0.26,-112.91,27.863.43,
-0.34,0.79,0.43,-128.03,13.4410.50,
-0.35,1.3,0.72,-147.49,-5.8115.61,
-0.34,1.76,0.88,-156.94,-34.8624.08,
-0.4,1.95,0.89,-164.57,-61.8143.26,
-0.31,1.84,0.89,-157.99,-78.8255.23,
-0.17,1.49,0.9,-160.16,-94.7855.79,
-0.2,1.25,1,-163.24,-94.7158.24,
-0.1,1.24,1.17,-154.91,-82.8164.33,
-0.09,1.28,1.19,-136.92,-60.5570.70,
-0.17,1.21,1.14,-117.46,-39.2771.68,
-0.14,1.19,0.98,-102.97,-18.8364.12,
-0.01,1.02,0.84,-93.38,-3.1553.76,
0.2,0.87,0.81,-79.59,12.3242.77,
0.22,0.83,0.8,-62.65,15.4031.85,
0.22,0.84,0.81,-48.02,10.2918.48,
0.19,0.77,0.84,-33.46,3.365.53,
0.14,0.69,0.88,-21.28,-6.93,
0.09,0.6,0.87,-9.17,-20.3,
0.06,0.53,0.8,5.53,-28.21,
0.01,0.41,0.71,21,-29.68,
0.01,0.34,0.64,38.15,-25.69,
0.02,0.29,0.58,50.05,-20.09,
0.02,0.28,0.53,56.77,4.55-19.32,
0.03,0.27,0.49,62.65,11.62-21.07,
0.06,0.24,0.45,69.3,17.01-23.66,
0.07,0.23,0.42,76.09,20.72-27.51,
0.09,0.22,0.4,86.24,21.70-29.89,
0.09,0.24,0.4,93.59,19.74-32.97,
0.08,0.2,0.37,100.52,18.48-35.00,
0.06,0.22,0.35,106.54,17.50-38.01,
0.03,0.22,0.32,109.9,18.97-39.27,
0,0.25,0.3,115.43,22.75-40.67,
-0.07,0.3,0.32,116.55,26.32-38.22,
-0.09,0.35,0.35,117.67,28.63-32.13,
-0.09,0.39,0.4,119.63,30.31-25.97,
-0.1,0.4,0.43,121.94,30.17-22.40,
-0.11,0.47,0.4,124.18,27.44-20.93,
-0.13,0.59,0.38,123.62,21.35-20.86,
-0.09,0.6,0.4,123.76,12.46-21.42,
-0.05,0.66,0.46,120.68,5.32-22.40,
0.07,0.64,0.49,121.45,-20.51,
0.12,0.72,0.48,120.89,-19.46,
0.11,0.79,0.41,114.31,-17.22,
0.05,0.86,0.36,107.52,-17.15,
0.02,0.92,0.38,97.72,-15.4,
-0.02,0.93,0.42,85.89,-14.35,
-0.04,0.91,0.49,72.1,-16.525.04,
-0.06,0.89,0.56,65.8,-17.719.17,
-0.03,0.9,0.67,59.85,-15.3310.99,
0.02,0.94,0.71,51.59,-14.1410.50,
0.07,0.97,0.76,38.78,-14.989.73,
0.01,1,0.71,24.85,-16.2411.27,
-0.06,0.97,0.71,12.53,-17.1511.97,
-0.15,0.96,0.8,7.91,-14.0714.84,
-0.23,1.1,0.74,10.64,-8.1218.34,
-0.3,1.26,0.61,14.63,-5.9522.61,
-0.33,1.46,0.44,16.1,-4.8323.03,
-0.3,1.57,0.36,9.73,-7.0721.42,
-0.18,1.59,0.14,2.66,-7.8417.22,
-0.28,1.52,-0.09,-25.83,-6.2312.04,
-0.04,1.12,0.13,-26.88,-2.1711.41,
0.08,0.91,0.52,-17.78,7.7011.76,
0.18,1.06,0.49,-0.28,21.0013.72,
0.26,1.52,0.49,6.02,20.0918.27,
0.31,1.65,0.59,-5.95,14.5624.22,
0.33,1.63,0.63,-23.8,14.8432.97,
0.27,1.43,0.58,-45.71,14.3539.76,
0.17,1.21,0.26,-39.48,12.5341.09,
0.07,1.08,0.22,-20.3,4.0638.15,
0.03,1.01,0.13,5.53,-10.3631.78,
0.02,0.98,0.13,32.34,-21.0724.71,
-0.03,1.07,0.22,55.09,-21.7713.86,
-0.01,1.1,0.25,63.07,-29.96,
-0.01,1.07,0.34,61.88,-14.63,
-0.06,1.01,0.41,57.05,13.93-22.12,
0,1.07,0.27,53.13,17.57-28.28,
0.03,1.09,0.21,49.49,12.39-31.15,
0.04,1.09,0.21,46.55,5.32-30.73,
0.04,1.07,0.18,40.46,-30.24,
0.04,1.01,0.18,36.19,-31.99,
0.04,0.89,0.18,35.35,-33.95,
0.02,0.85,0.2,34.79,-37.31,
0,0.82,0.24,34.51,-40.39,
-0.03,0.82,0.26,35.63,-43.26,
-0.07,0.83,0.26,35,-48.65,
-0.1,0.84,0.29,30.8,-53.9,
-0.07,0.81,0.28,27.93,-56.28,
-0.04,0.81,0.28,27.51,-55.3,
-0.01,0.82,0.27,27.02,-54.11,
0.02,0.82,0.23,26.88,-54.53,
0.05,0.81,0.18,23.66,-56.98,
0.09,0.75,0.11,17.99,-57.26,
0.13,0.69,0.12,10.36,-55.51,
0.16,0.63,0.18,2.17,-51.17,
0.16,0.62,0.26,-9.87,-47.18,
0.15,0.66,0.38,-23.73,-46.34,
0.15,0.76,0.46,-35.42,-48.16,
0.15,0.92,0.45,-37.31,-53.34,
0.16,0.99,0.46,-39.69,-58.8,
0.18,0.98,0.49,-46.41,-54.46,
0.22,0.88,0.43,-51.73,-35.56,
0.19,0.74,0.23,-51.66,5.53-22.05,
0.19,0.59,0.24,-47.11,12.81-24.78,
0.22,0.49,0.3,-44.17,18.20-26.04,
0.27,0.5,0.28,-39.9,24.01-26.81,
0.31,0.74,0.25,-32.9,29.12-24.71,
0.27,0.86,0.23,-31.57,27.93-18.55,
0.18,0.94,0.22,-39.41,16.73-9.52,
0.15,0.89,0.23,-51.03,4.692.31,
0.16,0.78,0.28,-57.12,-3.9212.74,
0.21,0.67,0.49,-54.88,-4.2719.67,
0.2,0.68,0.41,-53.48,-0.2821.49,
0.18,0.73,0.42,-56.07,7.7019.32,
0.18,0.75,0.38,-59.92,35.1414.28,
0.13,0.8,0.32,-61.11,27.5110.71,
0.12,0.75,0.27,-72.31,29.899.66,
0.05,0.77,0.22,-85.19,29.9611.62,
-0.03,0.75,0.24,-97.86,26.2516.31,
-0.16,0.8,0.5,-113.61,15.7528.70,
-0.23,1.1,0.72,-124.53,3.0839.41,
-0.22,1.4,0.77,-123.55,-10.9950.05,
-0.23,1.66,0.76,-125.02,-22.1958.59,
-0.24,1.61,0.73,-129.78,-33.7463.63,
-0.19,1.44,0.71,-137.83,-41.7264.82,
-0.2,1.27,0.79,-148.68,-43.0566.43,
-0.27,1.25,0.88,-154.98,-38.8563.28,
-0.26,1.29,0.91,-158.83,-26.6056.56,
-0.24,1.27,0.9,-161.49,-5.8849.98,
-0.33,1.12,0.88,-149.1,-0.1444.59,
-0.41,0.97,0.92,-132.23,-2.5242.28,
-0.42,0.9,0.93,-111.37,-9.8737.73,
-0.39,0.85,0.85,-83.93,-24.0132.55,
-0.25,0.85,0.83,-54.53,-32.5527.44,
-0.05,0.82,0.9,-31.15,-28.9120.09,
0.11,0.83,0.96,-16.24,-24.2211.41,
0.2,0.81,0.99,-2.87,-18.484.06,
0.19,0.79,0.93,3.15,-13.3,
0.18,0.73,0.75,8.75,-7.91,
0.16,0.52,0.62,13.72,1.40-1.05,
0.09,0.53,0.5,22.75,6.16-3.99,
0.01,0.46,0.38,32.41,5.88-7.84,
-0.02,0.37,0.29,44.03,3.71-12.53,
-0.04,0.29,0.24,52.92,1.19-17.22,
-0.03,0.25,0.24,66.36,-26.39,
-0.06,0.19,0.27,78.26,-35.28,
-0.07,0.2,0.33,89.53,-47.11,
-0.08,0.2,0.4,99.26,-53.48,
-0.12,0.21,0.43,109.13,-58.73,
-0.13,0.23,0.46,110.46,-54.53,
-0.16,0.34,0.46,103.88,-48.37,
-0.14,0.37,0.38,95.69,3.22-45.78,
-0.14,0.38,0.29,89.25,8.68-47.11,
-0.17,0.36,0.21,83.51,11.48-47.39,
-0.18,0.4,0.15,80.5,10.08-45.01,
-0.18,0.41,0.13,75.95,1.40-39.90,
-0.14,0.38,0.18,77.77,-48.02,
-0.12,0.42,0.27,84.77,-60.9,
-0.13,0.49,0.37,91.7,-75.6,
-0.16,0.68,0.46,99.89,-88.62,
-0.18,0.86,0.55,108.36,-100.52,
-0.08,0.95,0.64,115.99,-99.19,
-0.01,1.03,0.64,112,-95.41,
0.04,1.03,0.5,100.52,-91.77,
0.1,0.91,0.56,91.98,-87.78,
0.13,0.81,0.49,83.23,-82.46,
0.12,0.73,0.49,74.13,-78.54,
0.12,0.74,0.51,67.76,-77.07,
0.1,0.81,0.54,60.83,-80.43,
0.08,0.92,0.57,48.02,-86.03,
0.07,1.01,0.7,35.84,-90.02,
0.06,1.07,0.87,22.05,-91.07,
0.01,1.12,0.93,7.56,-88.2,
-0.04,1.09,1.11,-10.78,-77.14,
-0.04,1.2,1.11,-14.56,-64.82,
0.01,1.23,0.8,-7.7,-64.19,
0.02,1.22,0.38,-10.36,-82.464.90,
0.02,1.18,0.08,-7.35,-105.0719.11,
0.05,1.24,-0.01,1.05,-103.2533.81,
0.06,1.17,0.01,21.49,-67.2743.40,
0.01,1.27,0.33,49.14,-10.6438.08,
-0.07,1.62,0.61,38.5,1.0522.75,
-0.01,1.85,0.32,1.82,-19.3221.56,
0.03,1.92,0.43,-15.05,-34.9315.40,
0.03,1.92,0.56,-19.74,-42.7014.28,
0,1.74,0.5,-23.38,-31.15,
-0.13,1.39,0.34,-29.82,-20.51,
-0.18,1.22,0.21,-24.01,-35.84,
-0.24,1.04,0.22,3.08,-56.77,
-0.27,0.96,0.29,30.8,-73.64,
-0.24,1.05,0.27,56,-80.85,
-0.18,1.13,0.08,80.15,-87.15,
-0.12,1.17,-0.04,88.34,-100.59,
0.03,1.13,-0.06,84.7,-106.89,
0.07,1.09,-0.09,71.54,-110.81,
0.1,1.02,0.01,53.06,-103.88,
0.09,0.97,0.01,46.55,-93.38,
0.06,0.9,0.02,42.49,-85.75,
0.02,0.87,0.04,39.06,-83.37,
-0.04,0.8,0.05,39.76,-89.18,
-0.09,0.79,0.11,43.12,-94.71,
-0.18,0.8,0.14,43.4,-100.03,
-0.23,0.81,0.11,39.97,-109.06,
-0.2,0.79,0.08,37.31,-117.04,
-0.14,0.82,0.09,33.39,-122.43,
-0.09,0.87,0.1,28.49,-125.09,
-0.01,0.94,0.12,23.17,-125.37,
0.05,1.01,0.16,17.71,-124.88,
0.11,1.06,0.2,10.57,-121.8,
0.11,1.11,0.24,4.34,-117.04,
0.12,1.1,0.25,-0.63,-110.74,
0.12,1.05,0.24,-6.09,-102.48,
0.12,0.98,0.22,-9.52,-97.09,
0.16,0.94,0.22,-10.43,-89.81,
0.19,0.93,0.22,-10.5,-83.37,
0.19,0.94,0.23,-8.82,-76.37,
0.18,0.98,0.18,-5.95,-70.42,
0.16,1.02,0.15,-3.71,-67.34,
0.16,1.05,0.14,-3.36,-66.29,
0.16,1.07,0.14,-5.04,-64.96,
0.14,1.07,0.16,-6.86,-62.16,
0.11,1.04,0.19,-7.98,-58.66,
0.06,1.01,0.2,-6.65,-56.56,
0.02,0.98,0.18,-4.34,-56.91,
-0.03,0.95,0.21,-2.38,-60.34,
-0.07,0.92,0.23,0.14,-65.03,
-0.12,0.91,0.21,4.55,-70.21,
-0.15,0.91,0.15,5.6,-75.88,
-0.14,0.91,0.08,4.55,-85.75,
-0.08,0.93,0.06,1.96,-95.76,
-0.04,0.94,0.05,-1.12,-104.3,
-0.02,0.96,0.08,-3.43,-109.62,
0.01,0.98,0.07,-6.23,-111.72,
0,0.98,0.07,-7.77,-115.36,
-0.01,0.98,0.07,-8.05,-119.28,
-0.03,0.98,0.12,-6.72,-121.17,
-0.06,0.97,0.15,-2.31,-120.68,
-0.03,1,0.15,0.35,-119.21,
0.01,1,0.16,-2.8,-116.55,
0.08,1.01,0.18,-7.42,-111.51,
0.11,1,0.18,-11.41,-102.13,
0.13,1.01,0.16,-16.1,-92.68,
0.12,0.99,0.19,-19.67,-83.65,
0.11,0.97,0.23,-22.89,-72.94,
0.08,0.97,0.25,-25.55,-60.9,
0.01,0.97,0.26,-27.09,-51.45,
-0.06,0.96,0.26,-27.58,-47.81,
-0.13,0.96,0.27,-26.6,-47.53,
-0.18,0.95,0.28,-24.36,-49.42,
-0.23,0.94,0.29,-22.05,-53.2,
-0.26,0.95,0.3,-20.79,-58.45,
-0.27,0.92,0.29,-20.51,-64.82,
-0.27,0.9,0.28,-20.02,-71.54,
-0.25,0.89,0.28,-19.32,-76.23,
-0.23,0.88,0.27,-18.97,-80.64,
-0.22,0.86,0.28,-19.39,-83.86,
-0.21,0.84,0.26,-18.97,-84.98,
-0.19,0.86,0.24,-19.04,-85.05,
-0.17,0.89,0.24,-19.67,-85.47,
-0.16,0.9,0.26,-20.02,-86.38,
-0.15,0.94,0.29,-20.23,-87.36,
-0.17,0.97,0.32,-18.83,-88.48,
-0.19,0.99,0.35,-17.43,-91.63,
-0.19,1.02,0.37,-16.66,-95.27,
-0.19,1.03,0.4,-14.84,-98.98,
-0.17,1.04,0.44,-14,-101.99,
-0.17,1.04,0.45,-14.7,-103.18,
-0.18,1.02,0.46,-16.45,-104.51,
-0.18,1.01,0.45,-19.18,-106.19,
-0.19,1,0.44,-22.05,-109.41,
-0.17,0.96,0.44,-25.41,-111.72,
-0.15,0.92,0.44,-27.72,-112.63,
-0.12,0.89,0.46,-27.93,-111.51,
-0.11,0.88,0.46,-28.14,-109.06,
-0.11,0.88,0.46,-26.04,-107.38,
-0.13,0.89,0.47,-25.13,-106.54,
-0.17,0.89,0.48,-22.96,-108.01,
-0.21,0.9,0.48,-18.76,-109.83,
-0.24,0.92,0.48,-15.19,-112.77,
-0.25,0.92,0.45,-14.21,-115.85,
-0.25,0.89,0.42,-15.33,-119,
-0.24,0.87,0.42,-16.94,-121.87,
-0.23,0.89,0.42,-20.3,-124.18,
-0.2,0.9,0.39,-22.05,-129.71,
-0.19,0.91,0.37,-22.26,-138.74,
-0.17,0.9,0.39,-23.52,-146.16,
-0.16,0.87,0.41,-25.76,-152.81,
-0.15,0.84,0.41,-26.18,-158.76,
-0.16,0.83,0.42,-25.41,-166.04,
-0.12,0.8,0.42,-23.1,-173.18,
-0.09,0.78,0.41,-20.93,-180.25,
-0.03,0.77,0.4,-19.81,-186.13,
0.02,0.75,0.39,-15.96,-187.74,
0.07,1.11,0.5,-129.08,8.1971.75,
0.09,1.14,0.5,-125.37,9.5273.50,
0.06,1.18,0.47,-123.69,9.2473.08,
0.06,1.07,0.45,-121.31,11.2071.26,
0.06,0.91,0.38,-111.23,14.7768.81,
0.04,0.82,0.32,-99.33,20.3065.38,
-0.01,0.76,0.31,-89.6,27.7260.06,
-0.01,0.74,0.34,-82.67,29.8255.30,
0.01,0.7,0.36,-79.17,27.1652.01,
-0.01,0.72,0.47,-80.36,19.4647.95,
-0.02,0.74,0.57,-89.04,10.1545.29,
-0.02,0.74,0.64,-98.28,6.9345.92,
-0.02,0.74,0.62,-103.32,9.5248.16,
-0.04,0.68,0.53,-114.31,17.4349.35,
-0.05,0.61,0.44,-119.42,28.2849.56,
-0.03,0.56,0.38,-115.85,36.6849.14,
-0.01,0.55,0.37,-107.52,38.2250.68,
0.03,0.53,0.42,-96.11,32.9750.19,
0.04,0.56,0.44,-89.95,25.6250.89,
0.1,0.54,0.44,-87.22,22.9652.15,
0.08,0.5,0.46,-85.12,24.9948.86,
0.07,0.49,0.46,-81.41,28.3546.20,
0.07,0.51,0.44,-78.26,29.8943.47,
0.02,0.56,0.46,-81.34,32.5548.51,
0.03,0.45,0.48,-74.13,32.6246.34,
-0.12,0.43,0.51,-70.56,31.8543.89,
-0.02,0.38,0.55,-64.54,30.7340.74,
-0.06,0.36,0.58,-53.76,28.9134.23,
-0.05,0.29,0.61,-50.89,26.6731.78,
0,0.32,0.64,-47.32,22.8229.26,
0.02,0.33,0.66,-40.95,20.5128.63,
0.03,0.31,0.67,-32.27,21.5626.18,
0.01,0.31,0.67,-26.67,20.3723.10,
0.01,0.34,0.68,-16.73,18.4820.02,
0.03,0.36,0.71,-3.43,14.6316.38,
0.03,0.44,0.78,12.88,7.9815.05,
0.11,0.33,0.81,26.11,4.7611.06,
0.15,0.28,0.87,45.5,4.627.07,
0.22,0.29,0.94,54.32,9.032.80,
0.25,0.32,0.95,59.29,13.51-0.56,
0.25,0.38,0.91,62.02,14.42-0.35,
0.24,0.51,0.9,53.13,6.443.57,
0.24,0.62,0.92,51.59,-8.549.03,
0.24,0.48,0.88,54.81,-20.8616.31,
0.22,0.4,0.83,77.77,-31.5720.23,
0.16,0.36,0.74,110.25,-35.6319.88,
0.11,0.45,0.91,129.22,-33.8120.86,
0.02,1.17,1.35,88.2,-24.4318.97,
-0.01,1.31,1.16,50.12,-6.304.62,
-0.08,1.67,1.14,56.14,21.42-8.68,
-0.01,1.52,0.87,77.28,34.93-18.55,
-0.07,1.15,0.74,96.81,35.07-32.20,
-0.02,1.06,0.63,96.18,36.89-39.34,
0.05,0.82,0.55,93.1,37.31-44.94,
0.07,0.66,0.48,87.64,34.93-46.34,
0.07,0.6,0.4,84.84,31.01-45.57,
0.03,0.52,0.39,87.36,27.09-44.38,
-0.03,0.58,0.38,91.98,17.92-44.17,
-0.08,0.67,0.4,77.98,12.25-43.47,
-0.09,0.69,0.4,70.63,8.19-41.09,
-0.12,0.73,0.41,64.4,3.85-40.11,
-0.15,0.77,0.44,65.1,-42.42,
-0.14,0.88,0.45,68.53,-46.2,
-0.1,0.98,0.44,78.33,-53.06,
-0.08,1.06,0.42,82.46,-55.86,
-0.07,1.04,0.37,88.13,-62.93,
-0.01,0.98,0.34,99.12,-68.18,
0.03,0.95,0.32,103.53,-74.27,
0.07,0.92,0.32,105.35,-80.5,
0.13,0.87,0.27,104.23,-82.6,
0.19,0.88,0.25,101.85,-83.37,
0.22,0.87,0.25,100.31,-80.71,
0.18,0.9,0.27,96.46,-80.5,
0.23,0.9,0.29,94.64,-72.59,
0.22,0.91,0.33,85.61,-63.42,
0.21,0.89,0.32,76.86,-55.16,
0.17,0.91,0.3,69.37,-47.88,
0.13,0.89,0.3,63.7,-39.83,
0.11,0.88,0.28,58.1,-33.53,
0.07,0.86,0.27,54.46,-31.43,
0.04,0.81,0.24,55.86,-32.48,
0.01,0.78,0.22,58.52,-33.32,
0.02,0.78,0.18,59.22,-35.49,
0.05,0.77,0.15,59.71,-37.59,
0.07,0.74,0.16,61.74,-33.81,
0.11,0.71,0.16,62.02,11.27-29.54,
0.14,0.72,0.13,65.1,19.25-29.40,
0.13,0.73,0.14,66.01,26.60-26.39,
0.15,0.77,0.18,64.26,33.25-23.03,
0.14,0.79,0.2,63.77,38.64-19.46,
0.12,0.84,0.2,62.86,41.23-16.73,
0.09,0.9,0.2,58.45,41.93-11.90,
0.05,0.91,0.21,53.83,41.72-9.80,
0,0.97,0.2,47.04,39.13-8.54,
-0.04,0.94,0.2,43.05,38.22-5.04,
-0.01,0.98,0.18,40.32,38.43-7.35,
-0.02,0.94,0.16,42.28,38.71-8.61,
-0.02,0.89,0.15,43.4,38.85-9.03,
0,0.86,0.15,43.26,39.83-12.74,
0.03,0.84,0.12,42.77,41.72-15.82,
0.03,0.84,0.1,45.01,44.10-17.85,
0.02,0.91,0.08,46.76,45.22-20.44,
0.01,0.99,0.05,45.08,45.22-23.45,
0,1.04,0.06,41.58,44.66-25.27,
-0.02,1.04,0.08,36.96,42.77-25.34,
-0.03,1.03,0.09,31.92,38.43-24.99,
-0.03,1,0.1,24.92,33.74-26.53,
-0.06,1.01,0.1,19.74,29.61-28.84,
-0.07,1,0.08,16.73,24.50-32.34,
-0.09,1.01,0.08,14.28,18.13-36.05,
-0.09,1.04,0.09,13.09,11.90-40.81,
-0.06,1.08,0.1,10.99,5.60-43.47,
-0.03,1.12,0.06,7.07,1.26-45.85,
0.01,1.13,0.02,-1.12,-47.18,
0.05,1.13,-0.01,-5.74,-45.85,
0,1.11,0.04,-5.11,-42,
-0.01,1.13,0.12,-2.24,-35.63,
-0.04,1.09,0.15,-1.05,-24.15,
-0.01,1.11,0.15,-3.08,1.19-15.05,
0.06,1.09,0.16,-5.53,7.42-14.07,
0.15,1.05,0.2,-6.09,14.14-11.41,
0.21,1.07,0.21,-6.51,16.80-6.79,
0.23,1.08,0.17,-11.41,16.59-4.69,
0.23,1.12,0.13,-17.08,17.430.63,
0.2,1.19,0.09,-23.8,20.516.79,
0.17,1.25,0.05,-29.82,23.7311.90,
0.14,1.34,0,-39.62,26.2516.94,
0.09,1.42,0.12,-52.01,30.4520.86,
0,1.44,0.05,-64.54,35.0724.85,
-0.09,1.39,0.07,-76.65,36.8231.64,
-0.14,1.29,0.07,-87.57,36.7537.24,
-0.18,1.19,0.05,-97.86,36.0542.56,
-0.19,1.03,0.04,-107.59,36.1248.09,
-0.23,0.94,0.07,-118.16,37.3853.06,
-0.25,0.88,0.15,-126.91,39.4156.84,
-0.3,0.84,0.23,-135.94,39.4860.55,
-0.34,0.84,0.28,-141.61,37.9464.40,
-0.39,0.92,0.3,-147.21,29.8264.75,
-0.4,1,0.28,-151.55,21.4964.40,
-0.38,1.09,0.28,-145.74,14.2161.53,
-0.32,1.15,0.26,-135.31,8.8957.82,
-0.19,1.15,0.24,-125.86,9.4555.58,
-0.11,1.03,0.24,-112.91,12.3256.28,
-0.06,1.06,0.25,-105.49,34.7957.12,
-0.01,1.08,0.26,-100.94,28.2155.09,
0,1.07,0.23,-98.28,38.5751.87,
-0.02,0.96,0.22,-90.16,47.0450.54,
-0.04,0.86,0.24,-80.15,54.3251.80,
-0.09,0.84,0.26,-73.15,61.7452.85,
-0.13,0.78,0.3,-70,68.9555.65,
-0.17,0.73,0.35,-63.56,74.3457.47,
-0.15,0.7,0.36,-57.12,77.5659.01,
-0.12,0.67,0.34,-51.59,77.9160.97,
-0.1,0.66,0.33,-48.23,75.3962.86,
-0.05,0.66,0.36,-47.46,70.2166.08,
-0.01,0.7,0.39,-47.39,62.0967.69,
0.05,0.72,0.44,-48.86,50.9671.54,
0.13,0.75,0.49,-47.04,40.0477.07,
0.14,0.75,0.48,-44.52,36.0582.74,
0.17,0.7,0.45,-36.75,36.9690.44,
0.16,0.68,0.4,-28.35,43.8296.74,
0.13,0.69,0.33,-19.25,52.78102.27,
0.07,0.73,0.26,-10.36,59.64102.27,
0.02,0.76,0.23,-1.12,63.4297.86,
-0.04,0.78,0.22,9.17,61.4691.00,
-0.07,0.76,0.24,20.58,56.8483.02,
-0.09,0.73,0.26,35.07,53.8375.39,
-0.07,0.69,0.3,46.06,53.4869.37,
-0.06,0.66,0.34,51.45,54.7460.20,
-0.05,0.65,0.39,51.94,56.7055.65,
0,0.71,0.41,49.84,61.0451.31,
0.01,0.72,0.42,43.33,65.3145.92,
0.04,0.74,0.42,34.09,68.6740.11,
0.09,0.79,0.44,29.82,72.1033.60,
0.1,0.78,0.4,28.56,73.0127.02,
0.11,0.77,0.37,29.05,73.0821.21,
0.09,0.77,0.37,28.28,72.8016.38,
0.08,0.78,0.39,27.65,73.2210.78,
0.06,0.76,0.42,28.07,74.345.11,
0.05,0.73,0.42,32.13,76.79-0.49,
0.04,0.71,0.47,36.4,80.36-4.13,
0.06,0.73,0.51,42.35,85.96-7.70,
0.09,0.75,0.57,46.62,89.25-7.21,
0.11,0.83,0.62,51.1,89.25-3.92,
0.14,0.98,0.61,51.73,83.234.06,
0.14,1.12,0.57,42.42,72.2416.31,
0.07,1.18,0.58,32.9,62.5825.34,
0.01,1.28,0.67,24.92,57.7532.41,
0.06,1.48,0.78,14.14,53.6941.37,
0.19,1.42,0.82,0.42,46.3449.00,
0.3,1.26,0.75,-11.34,38.2256.56,
0.34,1.03,0.64,-22.19,34.8662.79,
0.32,0.79,0.58,-22.05,35.2866.15,
0.28,0.69,0.48,-10.57,39.0663.63,
0.17,0.73,0.42,8.05,49.9155.86,
0.04,0.94,0.37,31.08,64.5448.23,
-0.17,1.14,0.27,50.47,75.5342.21,
-0.27,1.26,0.1,66.5,81.2035.49,
-0.26,1.27,0.01,72.24,84.6330.73,
-0.19,1.24,0.17,62.86,83.0926.32,
-0.11,1.19,0.26,46.83,70.0027.72,
-0.02,0.99,0.23,34.58,58.3827.93,
0.02,0.84,0.18,27.3,55.3027.93,
0.12,0.8,0.18,24.92,68.2525.48,
0.05,0.76,0.14,7.84,83.1620.72,
-0.05,0.7,0.11,-4.69,101.2911.41,
-0.14,0.65,0,0.56,112.983.08,
-0.22,0.67,-0.11,19.88,110.74-3.29,
-0.3,0.77,-0.17,35.35,97.79-8.82,
-0.35,0.88,-0.13,44.1,72.31-11.69,
-0.33,1,-0.01,56.14,55.86-12.53,
-0.17,1.17,0.12,68.95,46.90-11.48,
-0.09,1.26,0.14,70.35,35.91-8.61,
0.04,1.25,0.16,68.04,24.71-4.27,
0.13,1.23,0.17,64.05,19.391.82,
0.16,1.16,0.16,56.63,20.936.44,
0.11,1.1,0.16,48.3,23.808.40,
0.05,1.03,0.15,36.61,26.817.70,
0,0.93,0.11,34.16,25.906.09,
0.02,0.88,0.06,38.5,23.245.95,
0,0.9,0.06,42.28,21.142.52,
-0.01,0.93,0.1,45.99,21.70-3.64,
-0.01,0.96,0.16,48.79,29.75-10.57,
0.01,0.96,0.18,49.49,39.06-16.87,
0.02,0.96,0.17,51.1,47.95-22.05,
0.02,0.97,0.15,50.47,54.18-25.83,
0.03,0.94,0.16,48.23,56.98-27.51,
0.04,0.97,0.15,45.43,57.61-27.02,
0.03,0.96,0.14,41.58,57.05-27.09,
0.04,0.94,0.13,38.92,54.60-27.30,
0.04,0.9,0.12,37.24,51.52-26.88,
0.02,0.85,0.09,36.82,46.20-25.06,
0,0.81,0.07,36.47,40.25-23.66,
-0.01,0.77,0.05,37.59,35.21-23.73,
-0.02,0.76,0.04,40.32,31.99-24.64,
-0.04,0.77,0.02,43.68,29.82-27.51,
-0.05,0.81,0,47.53,30.94-31.99,
-0.06,0.86,0.01,50.68,33.74-37.03,
-0.06,0.92,0.02,48.86,36.47-41.09,
-0.06,0.97,0.03,43.4,37.52-45.78,
-0.03,1.02,0.05,37.17,38.01-50.12,
-0.03,1.02,0.07,28.21,37.52-52.64,
-0.06,1.03,0.08,21.42,34.86-53.76,
-0.09,1.06,0.09,11.62,27.37-55.16,
-0.09,1.05,0.08,-0.91,17.57-53.27,
-0.06,1.05,0.1,-10.29,10.50-49.42,
-0.02,1.04,0.16,-15.47,9.80-41.51,
-0.04,1.04,0.2,-17.5,10.08-31.71,
-0.08,1.04,0.25,-17.71,8.61-19.74,
-0.12,1.09,0.24,-15.75,5.25-7.28,
-0.12,1.13,0.16,-13.51,2.871.89,
-0.02,1.14,0.14,-11.9,6.096.02,
0.08,1.15,0.18,-14.49,11.697.91,
0.12,1.18,0.2,-23.1,15.269.24,
0.22,1.24,0.2,-33.39,15.059.87,
0.29,1.34,0.18,-45.71,17.9912.25,
0.31,1.42,0.11,-66.08,24.2916.66,
0.3,1.47,0,-86.1,30.8722.54,
0.27,1.44,-0.06,-105.98,39.0630.52,
0.22,1.27,0.02,-117.95,49.9144.31,
0.09,1.07,0.09,-123.9,59.5757.26,
-0.08,0.95,0.14,-134.89,67.1368.25,
-0.21,0.85,0.22,-145.95,71.1275.60,
-0.31,0.85,0.26,-151.97,71.4079.59,
-0.37,0.94,0.29,-151.41,70.2880.43,
-0.39,1.08,0.33,-144.41,70.0776.16,
-0.4,1.18,0.32,-139.09,66.4369.23,
-0.3,1.15,0.3,-127.89,63.5667.06,
-0.18,1.13,0.24,-111.09,62.5165.80,
-0.08,1.09,0.17,-94.15,66.1564.40,
-0.06,1.13,0.14,-81.83,73.0860.06,
-0.02,1.09,0.14,-79.87,77.0756.84,
0.04,1.09,0.13,-80.01,79.6636.19,
0.08,1.05,0.13,-82.18,79.8753.20,
0.07,1.02,0.15,-82.81,75.2555.58,
0.01,0.96,0.21,-83.44,69.0259.50,
-0.05,0.92,0.27,-79.24,63.3564.89,
-0.12,0.88,0.31,-73.29,56.7070.35,
-0.16,0.84,0.33,-67.34,49.9175.67,
-0.19,0.81,0.33,-64.82,46.1380.78,
-0.18,0.75,0.36,-60.27,45.2983.93,
-0.16,0.73,0.39,-56,46.9083.65,
-0.09,0.72,0.4,-51.38,48.0983.23,
-0.04,0.72,0.4,-45.36,49.5682.11,
0.02,0.75,0.41,-43.4,52.5080.36,
0.09,0.75,0.39,-41.79,55.5178.47,
0.14,0.71,0.37,-37.45,59.8577.21,
0.17,0.72,0.33,-29.68,65.3177.14,
0.21,0.73,0.31,-21.7,67.4879.38,
0.19,0.74,0.3,-13.58,67.3480.71,
0.17,0.72,0.3,-5.81,66.4382.46,
0.14,0.71,0.31,2.52,66.6483.44,
0.09,0.68,0.33,10.15,67.7681.97,
0.04,0.67,0.34,16.24,71.8978.96,
0,0.65,0.35,20.44,77.4275.39,
-0.02,0.67,0.36,23.87,79.8770.35,
0,0.66,0.37,27.93,81.9067.69,
0.01,0.68,0.36,29.82,82.6064.47,
0.03,0.67,0.33,31.57,83.2362.02,
0.05,0.69,0.32,32.55,84.0759.36,
0.07,0.7,0.34,35.7,86.4556.35,
0.08,0.73,0.35,39.9,89.2552.29,
0.08,0.75,0.34,45.08,91.5646.62,
0.1,0.73,0.38,51.31,93.6640.32,
0.11,0.76,0.38,57.05,95.2733.60,
0.11,0.8,0.37,60.55,95.2726.81,
0.08,0.84,0.36,61.25,94.7122.54,
0.06,0.85,0.45,62.37,96.3219.81,
0.05,0.88,0.5,66.5,97.0218.20,
0.02,0.94,0.54,68.46,93.8018.97,
0,1.02,0.56,63.98,87.0122.54,
-0.02,1.13,0.52,50.19,75.9528.07,
-0.03,1.23,0.5,28.84,67.2035.91,
-0.03,1.29,0.56,14.14,61.1143.12,
-0.02,1.32,0.66,-0.35,55.0950.33,
0.05,1.27,0.65,-13.37,47.3958.73,
0.11,1.12,0.55,-24.92,42.1462.02,
0.14,0.99,0.47,-33.04,36.8965.10,
0.12,0.92,0.42,-27.44,36.8965.94,
0.06,0.98,0.33,-10.08,43.8964.12,
-0.05,1.08,0.04,9.24,50.8262.58,
-0.2,1.21,0,26.04,55.9358.59,
-0.29,1.27,-0.03,37.52,65.5948.79,
-0.34,1.25,0.04,34.3,72.7337.10,
-0.3,1.14,0.14,20.16,69.7926.88,
-0.2,0.97,0.21,9.03,66.0116.73,
-0.02,0.72,0.18,15.26,65.7310.15,
0.1,0.67,0.17,18.69,69.376.58,
0.19,0.6,0.19,21.63,76.375.74,
0.15,0.74,0.2,21.35,83.586.51,
0.1,0.84,0.2,27.58,98.077.14,
0.04,1,0.2,35.56,107.595.95,
-0.05,1.11,0.15,44.66,105.495.04,
-0.1,1.2,0.14,53.48,95.555.39,
-0.12,1.25,0.19,60.9,81.836.37,
-0.09,1.29,0.24,64.82,67.1310.57,
-0.06,1.22,0.26,62.58,47.9514.14,
0.02,1.13,0.28,58.52,32.6915.54,
0.06,1.05,0.25,54.81,29.8215.12,
0.09,1,0.23,51.52,31.9212.95,
0.1,0.94,0.21,49.42,37.5210.78,
0.07,0.89,0.19,49.28,43.057.77,
0.02,0.87,0.14,49.77,46.972.59,
-0.01,0.88,0.11,52.01,49.98-3.29,
-0.06,0.9,0.1,55.44,49.63-8.68,
-0.1,0.95,0.12,55.51,47.04-13.65,
-0.11,1.01,0.16,52.08,43.54-17.01,
-0.09,1.05,0.18,46.69,40.81-17.50,
-0.03,1.05,0.17,41.3,38.22-15.19,
0,1.05,0.14,37.1,34.93-11.83,
0.03,1.02,0.14,34.16,28.77-8.26,
0.01,0.99,0.11,31.01,21.56-4.97,
0,0.95,0.11,30.17,13.37-3.01,
-0.02,0.93,0.12,30.66,5.81-2.17,
-0.03,0.91,0.13,31.22,-3.64,
-0.03,0.9,0.13,30.52,-11.13,
-0.02,0.89,0.14,28.56,-18.34,
-0.01,0.88,0.14,25.2,-21.21,
0.03,0.88,0.14,21.91,-21.77,
0.07,0.84,0.14,23.45,-19.25,
0.09,0.85,0.14,27.37,-14.42,
0.11,0.86,0.14,31.22,2.24-13.09,
0.1,0.86,0.16,34.44,5.11-12.46,
0.09,0.85,0.16,36.19,3.71-12.18,
0.08,0.83,0.15,18.13,-11.69,
0.1,0.82,0.13,34.37,-18.9,
0.12,0.81,0.12,33.6,-22.47,
0.14,0.86,0.1,33.18,-22.33,
0.13,0.95,0.1,33.67,-19.95,
0.12,1.04,0.09,38.15,-16.94,
0.04,1.13,0.08,43.89,-15.68,
-0.03,1.2,0.09,43.82,2.03-20.58,
-0.06,1.24,0.12,40.88,2.59-27.72,
-0.05,1.22,0.2,35.14,2.38-34.23,
0.01,1.17,0.24,27.02,0.98-39.34,
0.1,1.12,0.23,21.14,-41.51,
0.16,1.12,0.19,16.31,-42.28,
0.16,1.16,0.14,13.51,-40.18,
0.13,1.29,0.09,13.3,-34.09,
0.1,1.41,0.05,9.59,-24.22,
0.09,1.5,0.06,1.05,0.49-12.39,
0.06,1.51,0.11,-7.84,5.53-5.95,
0.05,1.49,0.16,-17.15,8.19-1.82,
0.05,1.46,0.2,-27.79,9.941.68,
0.02,1.42,0.17,-39.9,12.677.21,
-0.02,1.36,0.13,-51.8,14.7013.93,
-0.05,1.24,0.1,-61.25,16.1719.04,
-0.08,1.15,0.12,-71.05,17.4323.59,
-0.08,1.06,0.14,-81.55,19.5326.67,
-0.11,1.01,0.18,-91.14,23.1728.91,
-0.12,0.99,0.22,-97.16,27.5830.31,
-0.13,1.02,0.25,-102.9,32.1331.43,
-0.14,1.08,0.29,-109.62,35.9133.81,
-0.15,1.1,0.28,-117.11,37.7337.59,
-0.16,1.13,0.27,-124.67,39.2043.89,
-0.17,1.15,0.27,-131.67,37.7347.67,
-0.17,1.14,0.27,-139.44,32.8351.59,
-0.15,1.12,0.28,-148.47,29.8955.86,
-0.14,1.07,0.28,-152.25,26.5359.08,
-0.15,1.04,0.3,-151.55,22.9661.25,
-0.16,1,0.31,-146.02,19.8862.65,
-0.16,1,0.31,-136.29,19.6060.06,
-0.13,0.98,0.32,-125.93,20.0259.22,
-0.1,1.02,0.34,-114.73,21.5658.31,
-0.09,1.03,0.36,-105,24.0155.23,
-0.08,1.05,0.35,-102.2,26.4653.48,
-0.05,1.01,0.37,-102.69,29.6153.34,
-0.02,0.87,0.4,-97.02,33.1156.84,
0.01,0.8,0.4,-88.06,33.2559.85,
0.06,0.82,0.45,-81.13,29.0562.58,
0.11,0.87,0.54,-80.64,23.3168.46,
0.11,0.92,0.62,-83.51,15.0574.76,
0.1,0.97,0.68,-88.41,8.9682.04,
0.12,0.98,0.69,-85.33,10.5088.55,
0.1,0.93,0.71,-98.35,20.4491.42,
0.09,0.86,0.63,-103.04,31.7890.16,
0.07,0.78,0.55,-98.49,38.9987.85,
0.03,0.7,0.51,-83.37,45.5081.20,
0.04,0.65,0.52,-67.83,49.5678.26,
0.07,0.66,0.49,-51.24,53.7677.63,
0.08,0.64,0.49,-45.99,55.1676.58,
0.05,0.57,0.5,-46.97,56.4976.44,
0.05,0.49,0.49,-51.1,59.9272.45,
0.06,0.5,0.49,-59.92,63.4967.48,
0,0.48,0.48,-66.85,66.1566.08,
0.04,0.5,0.47,-60.69,69.3065.87,
0,0.5,0.45,-53.76,70.9865.17,
-0.02,0.54,0.46,-55.16,68.8868.32,
-0.02,0.56,0.47,-55.58,65.5267.20,
-0.1,0.5,0.45,-57.68,62.0965.59,
-0.06,0.49,0.48,-51.31,60.1361.25,
-0.14,0.45,0.44,-49.14,55.5855.37,
-0.11,0.43,0.44,-44.66,50.6852.36,
-0.1,0.4,0.45,-35.84,48.0247.53,
-0.11,0.39,0.49,-28.91,43.0545.64,
-0.13,0.37,0.53,-23.24,36.1943.89,
-0.09,0.35,0.56,-12.39,35.0741.09,
-0.01,0.72,0.63,-23.94,35.2847.39,
0.01,0.34,0.67,-13.23,31.2244.94,
0.07,0.33,0.7,-4.83,31.7841.02,
0.11,0.33,0.72,4.62,29.7536.12,
0.14,0.33,0.71,15.47,29.6131.92,
0.17,0.35,0.68,28.98,28.6328.56,
0.17,0.36,0.66,44.94,26.3924.71,
0.16,0.37,0.69,60.41,21.3520.44,
0.16,0.42,0.74,74.69,11.9015.19,
0.16,0.62,0.74,80.36,0.4916.31,
0.17,0.67,0.76,79.59,-11.6217.85,
0.2,0.68,0.8,80.43,-25.6220.37,
0.23,0.6,0.85,92.61,-32.8325.97,
0.18,0.72,1,94.15,-36.6838.64,
0.18,0.87,0.97,101.64,-34.1639.69,
0.08,1.37,1.02,111.16,-27.2327.30,
-0.02,1.59,1.06,122.5,-8.129.24,
-0.08,1.52,0.93,109.62,13.86-4.48,
-0.14,1.35,0.81,101.71,27.02-14.00,
-0.12,1.16,0.67,90.16,31.08-24.43,
-0.12,0.89,0.54,90.09,28.42-24.57,
-0.08,0.7,0.4,97.44,20.72-23.03,
-0.07,0.59,0.31,106.68,11.97-22.54,
-0.09,0.52,0.27,117.6,3.92-20.86,
-0.12,0.47,0.21,132.93,-28.7,
-0.13,0.58,0.24,136.57,-35.49,
-0.15,0.65,0.27,128.94,-46.13,
-0.18,0.78,0.34,117.32,-53.83,
-0.16,0.87,0.36,103.88,-60.34,
-0.18,0.96,0.36,94.5,-69.09,
-0.18,1.09,0.36,86.66,-76.02,
-0.12,1.16,0.35,79.73,-84.7,
-0.06,1.14,0.32,75.18,-92.61,
0.02,1.04,0.3,77.28,-99.12,
0.09,0.96,0.28,80.29,-102.97,
0.15,0.92,0.27,82.95,-105.91,
0.2,0.88,0.26,83.09,-105.77,
0.22,0.89,0.24,85.33,-104.3,
0.27,0.95,0.25,84.49,-98.49,
0.32,0.99,0.27,83.65,-90.93,
0.32,1.06,0.29,81.27,-81.2,
0.36,1.11,0.37,73.78,-64.61,
0.22,1.04,0.24,66.01,-55.23,
0.22,1.03,0.24,62.58,-43.26,
0.19,1.02,0.24,56,-30.73,
0.14,0.98,0.18,54.53,1.26-26.04,
0.06,0.98,0.16,50.96,-26.53,
0.06,0.94,0.16,49.14,-28,
0.03,0.89,0.19,48.44,-30.1,
0.04,0.86,0.15,53.27,-28.35,
0.02,0.89,0.17,59.08,-29.89,
-0.05,0.88,0.14,67.97,-36.33,
-0.08,0.87,0.18,67.97,-38.15,
-0.08,0.85,0.23,62.93,-40.6,
-0.12,0.85,0.23,55.02,-44.8,
-0.12,0.8,0.24,44.87,-48.09,
-0.12,0.82,0.19,37.31,-55.37,
-0.06,0.82,0.13,30.31,-64.33,
-0.03,0.8,0.11,22.4,-71.47,
0.06,0.83,0.14,14.28,-75.46,
0.08,0.82,0.12,5.18,-76.3,
0.14,0.84,0.12,0.42,-71.75,
0.18,0.85,0.11,4.27,-61.39,
0.23,0.9,0.12,10.08,-51.24,
0.25,0.91,0.13,17.85,-44.66,
0.26,0.93,0.17,24.85,-34.3,
0.25,0.96,0.19,29.19,-23.66,
0.23,1.02,0.19,26.67,-17.15,
0.22,1.02,0.18,24.01,-12.6,
0.2,1.06,0.15,23.38,-10.85,
0.15,1.11,0.13,20.93,-12.18,
0.1,1.14,0.14,17.85,-13.37,
0.05,1.17,0.16,14.14,-13.86,
0,1.19,0.19,9.73,-13.51,
-0.05,1.2,0.18,5.18,1.68-14.56,
-0.07,1.29,0.14,0.91,2.87-15.82,
-0.1,1.43,0.12,-5.88,2.17-16.31,
-0.14,1.55,0.13,-12.04,0.84-14.07,
-0.17,1.63,0.14,-20.37,1.19-8.82,
-0.21,1.65,0.19,-21.07,1.40-3.71,
-0.22,1.61,0.22,-25.62,0.21-0.14,
-0.2,1.51,0.23,-31.92,-1.262.80,
-0.17,1.45,0.24,-35.7,-2.734.48,
-0.13,1.41,0.24,-41.79,-4.626.58,
-0.08,1.35,0.25,-56.7,-3.649.73,
-0.05,1.25,0.26,-71.26,0.4212.67,
-0.04,1.17,0.27,-87.5,5.8116.24,
-0.02,1.08,0.31,-103.39,11.5521.07,
-0.01,0.99,0.37,-113.96,15.6124.85,
-0.01,0.96,0.41,-119.21,16.8729.47,
-0.02,0.97,0.43,-124.88,15.7534.93,
-0.03,1,0.44,-133.77,13.7241.86,
-0.03,0.98,0.43,-137.13,11.2048.93,
-0.05,0.99,0.42,-138.88,9.2455.58,
-0.07,1,0.42,-140.91,8.5461.53,
-0.05,0.99,0.43,-138.25,7.7065.24,
-0.02,0.98,0.41,-132.65,6.1667.69,
-0.01,1,0.37,-122.29,2.1068.18,
0,1.01,0.38,-113.54,-1.7565.87,
0.02,0.89,0.38,-103.81,-3.7863.00,
0.04,0.85,0.35,-89.74,-3.2960.34,
0.06,0.83,0.33,-79.1,1.7556.84,
0.06,0.83,0.38,-72.73,15.6153.34,
0.04,0.85,0.41,-71.61,25.0650.33,
0.04,0.9,0.41,-75.81,26.7449.07,
0.05,0.91,0.43,-75.46,24.4349.84,
0.05,0.88,0.55,-74.97,26.6051.59,
-0.01,0.85,0.58,-88.48,30.8049.70,
-0.03,0.8,0.54,-102.06,35.3547.04,
-0.03,0.74,0.49,-112.35,37.5947.04,
-0.03,0.66,0.45,-115.01,35.3549.42,
0.01,0.63,0.45,-103.11,32.6252.78,
0.06,0.57,0.42,-86.38,29.2657.54,
0.02,0.55,0.44,-80.57,25.9058.38,
0,0.51,0.42,-81.55,28.9853.20,
-0.05,0.48,0.4,-78.19,37.4548.79,
-0.03,0.45,0.37,-79.17,46.2743.68,
-0.1,0.41,0.35,-78.68,47.3238.71,
-0.03,0.4,0.35,-72.66,43.9634.72,
0,0.42,0.36,-63.49,37.5234.16,
-0.01,0.41,0.43,-58.31,26.9535.77,
0.02,0.51,0.47,-55.02,21.5633.53,
-0.03,0.4,0.52,-55.02,16.8738.15,
-0.01,0.43,0.54,-71.61,19.9534.86,
-0.03,0.36,0.55,-52.57,23.1033.81,
-0.01,0.35,0.55,-47.95,27.5827.72,
-0.01,0.36,0.56,-42.49,27.3025.06,
0.01,0.33,0.57,-34.51,24.8523.52,
0,0.34,0.61,-24.08,19.8119.39,
0.04,0.3,0.62,-13.58,17.2914.63,
0.08,0.27,0.69,4.9,14.3510.01,
0.1,0.3,0.76,17.22,11.905.81,
0.11,0.33,0.82,22.61,9.312.52,
0.13,0.38,0.85,25.55,7.770.49,
0.12,0.46,0.85,29.82,6.300.07,
0.14,0.49,0.85,35.28,0.000.84,
0.16,0.53,0.83,43.47,-10.222.10,
0.15,0.53,0.82,56.14,-21.076.09,
0.15,0.44,0.75,72.1,-27.308.68,
0.09,0.45,0.71,87.36,-29.969.59,
0.1,0.36,0.76,115.57,-29.7510.92,
0.02,0.73,1.03,118.16,-30.3816.38,
0,1.2,1.25,65.73,-25.6920.58,
-0.02,1.29,1.06,54.46,-11.7612.95,
0,1.54,1.09,79.45,-0.7,
-0.04,1.68,0.86,98.14,6.86-13.44,
-0.07,1.4,0.74,98.14,11.20-23.59,
-0.04,1.24,0.64,92.05,16.87-25.20,
0.05,0.88,0.55,89.67,21.49-28.21,
0.02,0.65,0.46,96.88,19.95-26.25,
0.04,0.57,0.42,96.95,14.70-27.93,
-0.01,0.53,0.37,100.87,8.96-28.77,
-0.01,0.59,0.35,96.6,6.44-30.80,
-0.07,0.66,0.32,90.16,3.36-34.09,
-0.11,0.71,0.26,85.33,-53.97,
-0.16,0.74,0.25,80.57,-41.09,
-0.21,0.75,0.27,78.12,-49.42,
-0.22,0.81,0.31,79.1,-59.64,
-0.2,0.9,0.34,91.07,-68.6,
-0.17,0.97,0.35,100.73,-76.51,
-0.11,1.03,0.34,111.58,-82.11,
0.03,1.08,0.33,116.83,-86.38,
0.11,1.08,0.28,117.46,-88.76,
0.16,1.08,0.24,113.19,-91,
0.21,1.03,0.22,107.8,-92.12,
0.19,0.96,0.24,102.97,-93.87,
0.18,0.92,0.24,95.34,-95.83,
0.18,0.9,0.25,88.41,-96.81,
0.14,0.89,0.23,80.78,-94.15,
0.15,0.89,0.24,79.17,-93.59,
0.17,0.94,0.25,74.13,-88.9,
0.15,0.96,0.21,69.3,-84.35,
0.13,0.94,0.21,67.34,-81.55,
0.09,0.94,0.21,62.86,-80.08,
0.05,0.9,0.2,61.67,-77.63,
0.1,0.86,0.21,61.39,-73.36,
0.11,0.84,0.19,60.2,-67.41,
0.15,0.86,0.17,57.82,-61.04,
0.15,0.83,0.13,58.45,-56,
0.19,0.84,0.14,56.84,-45.29,
0.15,0.84,0.13,56.49,-38.22,
0.13,0.89,0.15,55.09,-36.75,
0.04,0.86,0.11,54.6,-36.68,
0.02,0.89,0.14,53.41,-37.38,
-0.02,0.87,0.15,51.94,-39.06,
-0.06,0.88,0.15,51.52,-46.2,
-0.12,0.91,0.12,47.11,-55.51,
-0.12,0.92,0.11,39.9,-65.52,
-0.06,0.91,0.14,31.43,-70.91,
-0.02,0.88,0.16,21.14,-71.47,
0.05,0.9,0.18,15.33,-71.12,
0.09,0.94,0.15,11.69,-67.48,
0.12,1,0.12,8.82,-64.26,
0.16,1.02,0.11,5.04,-58.24,
0.17,1.03,0.12,3.15,-53.69,
0.19,1.06,0.14,2.73,-47.81,
0.24,1.04,0.15,5.6,-44.87,
0.25,1.04,0.12,9.38,-40.32,
0.27,1.02,0.14,12.11,-32.2,
0.24,1.02,0.15,13.86,-28.07,
0.23,1.03,0.14,14.98,-22.89,
0.19,1.04,0.16,12.81,-17.99,
0.15,1.1,0.17,6.72,-13.65,
0.1,1.16,0.16,0.98,-11.34,
0.03,1.23,0.16,-3.71,-10.99,
-0.02,1.32,0.14,-8.68,-13.51,
-0.03,1.33,0.16,-13.02,-17.08,
-0.04,1.34,0.17,-16.73,-19.25,
-0.02,1.39,0.11,-24.01,-18.62,
-0.01,1.41,0.04,-31.85,-17.57,
-0.06,1.45,0.05,-39.2,-17.08,
-0.06,1.46,0.1,-39.06,-10.99,
-0.07,1.47,0.15,-36.26,-8.822.80,
-0.14,1.41,0.18,-35.21,-10.855.74,
-0.17,1.35,0.25,-36.75,-11.906.51,
-0.19,1.31,0.31,-42.42,-13.306.72,
-0.18,1.25,0.32,-49.21,-14.146.86,
-0.15,1.2,0.29,-62.09,-13.657.49,
-0.08,1.06,0.31,-75.88,-10.578.05,
-0.03,0.99,0.35,-85.96,-5.119.45,
0.02,0.95,0.4,-93.52,3.9211.13,
0.05,0.95,0.41,-102.97,12.2513.37,
0.07,0.98,0.39,-113.4,18.4817.08,
0.1,1,0.36,-124.25,21.9822.96,
0.12,0.99,0.35,-134.33,26.1832.62,
0.13,1.01,0.33,-142.73,27.9346.76,
0.12,1.02,0.29,-143.92,25.6255.58,
0.06,1.02,0.31,-137.69,21.1461.46,
0.02,1,0.34,-124.04,17.2965.80,
0.01,0.95,0.38,-111.37,14.1468.81,
0,0.91,0.43,-97.16,12.1170.84,
-0.05,0.99,0.45,-91.77,9.2470.14,
-0.04,0.92,0.42,-86.03,7.2169.58,
-0.02,0.9,0.4,-79.31,7.0066.71,
-0.03,0.88,0.39,-72.59,11.4160.90,
-0.01,0.81,0.38,-66.85,17.5056.91,
-0.02,0.79,0.44,-65.03,23.8752.08,
-0.02,0.79,0.49,-67.55,27.0247.18,
0.01,0.85,0.51,-78.05,26.8143.89,
0.05,0.89,0.52,-86.73,20.7946.97,
0.06,0.86,0.53,-93.59,18.5551.03,
0.07,0.77,0.5,-96.39,23.8755.44,
0.05,0.72,0.47,-94.78,34.0258.52,
0.03,0.69,0.4,-91.84,46.2058.17,
0.01,0.68,0.39,-91.91,54.1155.72,
0.01,0.67,0.43,-86.1,53.9754.67,
-0.05,0.7,0.44,-75.95,45.0151.80,
-0.03,0.65,0.45,-74.13,38.7853.83,
-0.04,0.57,0.45,-74.34,35.4952.15,
-0.07,0.5,0.46,-71.89,33.5348.86,
-0.05,0.45,0.46,-67.27,34.7244.52,
-0.06,0.43,0.45,-63.35,36.3337.94,
-0.03,0.41,0.45,-64.61,34.7235.84,
-0.01,0.37,0.47,-63.42,30.1734.72,
0.01,0.43,0.49,-62.3,29.2634.37,
0.03,0.41,0.49,-56,29.8935.49,
0.02,0.49,0.5,-56.63,32.6936.12,
0,0.41,0.52,-52.57,33.6036.19,
0,0.44,0.51,-54.39,35.2831.85,
-0.01,0.45,0.52,-50.61,29.8930.80,
0.02,0.44,0.55,-46.62,25.7628.84,
0.02,0.39,0.58,-36.33,25.2026.04,
0,0.38,0.6,-28.84,21.4223.31,
-0.02,0.37,0.61,-17.92,19.0420.16,
-0.01,0.35,0.64,-6.02,17.2215.89,
0.02,0.38,0.69,6.02,14.0010.99,
0.09,0.33,0.75,13.93,12.046.72,
0.12,0.35,0.8,20.09,6.445.18,
0.14,0.25,0.82,27.16,2.312.59,
0.17,0.31,0.81,32.69,-2.240.49,
0.18,0.38,0.82,33.46,-7.14,
0.17,0.48,0.83,35.56,-14.561.05,
0.17,0.56,0.82,40.53,-26.185.67,
0.19,0.52,0.79,49.49,-34.7912.18,
0.15,0.51,0.78,72.59,-37.5917.29,
0.17,0.45,0.96,106.4,-33.1818.69,
0.09,0.84,1.38,90.93,-27.7217.29,
0.05,1.21,1.22,42.91,-11.278.61,
-0.01,1.38,1.1,54.32,11.41-7.28,
0.04,1.69,1.04,83.3,23.52-20.58,
0.01,1.75,0.99,75.25,19.32-26.32,
0.06,1.42,0.77,71.68,21.98-23.94,
0.12,1.01,0.6,81.9,31.15-19.53,
0.05,0.68,0.51,92.12,34.37-18.83,
0.02,0.45,0.41,89.39,30.66-18.69,
0.01,0.36,0.35,89.46,23.03-20.72,
0.02,0.46,0.33,91.07,22.33-21.91,
-0.06,0.52,0.29,89.95,18.34-22.05,
-0.13,0.58,0.24,87.5,12.11-22.26,
-0.19,0.65,0.26,81.9,4.55-22.89,
-0.25,0.76,0.3,76.16,-32.06,
-0.29,0.82,0.33,76.23,-43.33,
-0.24,1,0.32,84.28,-59.78,
-0.18,1.16,0.31,94.64,-72.87,
-0.08,1.22,0.33,100.73,-80.71,
0.01,1.22,0.32,107.24,-82.25,
0.07,1.16,0.29,111.72,-82.67,
0.13,1.05,0.29,108.99,-82.88,
0.19,0.96,0.27,105.42,-84.56,
0.23,0.89,0.3,105.56,-84.98,
0.23,0.87,0.31,99.54,-85.26,
0.22,0.87,0.3,92.61,-83.72,
0.24,0.88,0.29,90.72,-79.17,
0.24,0.94,0.28,87.57,-72.17,
0.23,0.97,0.24,85.05,-66.78,
0.22,1.01,0.21,81.76,-57.75,
0.16,1.06,0.2,75.18,-52.36,
0.13,1.07,0.23,68.74,-45.01,
0.05,1.03,0.22,62.3,-40.95,
0.05,0.96,0.22,62.86,-34.3,
-0.01,0.92,0.21,57.4,-30.45,
0.01,0.84,0.2,60.13,-27.23,
0.01,0.81,0.17,61.11,-26.46,
0.01,0.77,0.18,63.14,-28.14,
0,0.77,0.19,64.47,-31.99,
0.01,0.77,0.17,66.99,-35.98,
0,0.77,0.15,69.16,-37.59,
-0.01,0.79,0.15,70.56,-42.91,
-0.04,0.81,0.15,68.74,-51.31,
-0.05,0.85,0.17,63.35,-56.98,
-0.06,0.85,0.18,56.98,-58.59,
-0.09,0.87,0.16,51.66,-59.64,
-0.07,0.9,0.16,42.49,-61.88,
-0.06,0.92,0.15,33.74,-64.89,
0.11,0.89,0.16,24.29,-67.48,
0.06,0.86,0.15,16.94,-66.57,
0.1,0.84,0.12,15.4,-68.11,
0.14,0.85,0.14,14.56,-65.45,
0.18,0.89,0.17,14.21,-60.48,
0.2,0.94,0.16,18.2,-59.01,
0.21,0.98,0.15,22.4,-55.3,
0.22,1.02,0.15,23.45,-49.84,
0.21,1.02,0.13,22.96,-42.7,
0.24,1.03,0.14,21.14,-36.82,
0.23,1.02,0.16,21.07,-30.03,
0.21,1.04,0.17,20.65,-25.27,
0.19,1.05,0.18,16.73,-23.31,
0.17,1.05,0.19,10.36,-22.4,
0.16,1.06,0.18,3.36,-24.22,
0.16,1.06,0.17,-2.1,-25.62,
0.14,1.08,0.17,-2.52,-25.97,
0.08,1.11,0.13,-3.5,-25.2,
0.03,1.17,0.07,-4.2,-21.7,
-0.04,1.28,0.04,-5.6,-17.99,
-0.09,1.36,-0.01,-14.21,-14.28,
-0.1,1.39,0,-21.49,-11.130.63,
-0.18,1.34,0.06,-25.13,-13.2311.34,
-0.06,1.46,0.09,-26.46,-16.594.76,
-0.04,1.48,0.14,-30.59,-17.436.51,
0,1.56,0.17,-32.9,-16.385.53,
-0.03,1.59,0.18,-33.81,-12.956.02,
-0.06,1.62,0.18,-36.82,-10.785.81,
-0.07,1.53,0.19,-41.37,-8.404.69,
-0.07,1.46,0.25,-45.92,-4.552.80,
-0.08,1.39,0.3,-53.62,-0.561.68,
-0.1,1.31,0.32,-64.4,2.103.01,
-0.12,1.23,0.35,-76.44,1.685.60,
-0.12,1.16,0.36,-90.37,-1.969.80,
-0.09,1.06,0.39,-104.16,-5.4614.07,
-0.07,0.97,0.41,-116.76,-9.4518.55,
-0.03,0.91,0.45,-123.48,-10.1524.71,
0,0.88,0.45,-129.36,-6.7932.48,
0.03,0.9,0.45,-136.43,-3.4339.69,
0.06,0.9,0.47,-142.94,1.8944.45,
0.12,0.89,0.47,-147.42,7.5650.47,
0.12,0.94,0.43,-149.24,11.3455.86,
0.12,0.94,0.39,-144.69,11.9760.97,
0.11,0.99,0.35,-138.53,9.7364.96,
0.1,0.98,0.31,-130.69,4.6268.32,
0.08,0.92,0.31,-118.09,-0.7069.37,
0.06,0.9,0.32,-102.97,-5.6766.78,
0.03,0.86,0.35,-72.52,-5.6763.00,
0.03,0.8,0.34,-70.14,-3.7162.79,
-0.01,0.79,0.39,-60.41,4.7660.90,
-0.03,0.75,0.47,-56.91,15.4759.08,
-0.02,0.78,0.56,-58.24,24.3657.05,
0.02,0.86,0.62,-60.06,35.4256.77,
0.03,0.86,0.59,-73.01,43.8956.56,
0.04,0.79,0.55,-92.54,49.3554.67,
0.07,0.73,0.5,-96.32,51.8054.11,
0.09,0.72,0.46,-97.37,51.5956.28,
0.13,0.73,0.46,-92.54,47.1859.85,
0.09,0.65,0.44,-88.9,37.7367.90,
0.05,0.59,0.4,-84.07,33.7468.53,
-0.03,0.53,0.35,-84.98,40.0462.51,
-0.09,0.43,0.34,-78.89,48.5855.44,
-0.11,0.4,0.35,-68.32,54.3945.43,
-0.07,0.36,0.37,-56.77,53.8340.60,
-0.09,0.38,0.41,-59.22,43.1938.29,
-0.02,0.46,0.41,-53.2,35.4238.08,
-0.01,0.42,0.47,-53.55,28.4942.21,
-0.02,0.41,0.5,-60.69,27.0243.05,
-0.02,0.34,0.52,-64.54,29.1244.87,
-0.04,0.38,0.55,-65.1,32.2741.79,
-0.01,0.49,0.53,-63.63,36.6138.57,
0.01,0.4,0.53,-55.93,40.5335.63,
0.04,0.36,0.54,-43.89,40.5335.63,
0.05,0.33,0.54,-28.63,37.6633.60,
0.03,0.31,0.54,-10.78,32.4829.47,
0.05,0.32,0.57,0.42,26.1124.92,
0.05,0.32,0.6,10.08,19.0420.51,
0.07,0.32,0.67,18.62,12.3916.52,
0.1,0.3,0.77,27.02,9.1011.97,
0.12,0.29,0.82,32.69,9.947.70,
0.14,0.31,0.83,37.31,10.782.80,
0.17,0.34,0.83,40.11,8.33-1.68,
0.2,0.4,0.81,43.61,1.68-4.76,
0.23,0.43,0.79,49.56,-12.53,
0.2,0.58,0.76,54.46,-24.643.36,
0.17,0.54,0.8,63.91,-40.0411.62,
0.07,0.7,1.1,64.75,-36.8921.07,
-0.04,0.98,1.3,20.44,-22.0522.75,
-0.08,1.3,1.2,19.81,-0.496.79,
-0.02,1.42,1.02,53.41,16.73-9.66,
-0.06,1.46,0.9,88.48,20.65-21.77,
-0.12,1.52,0.91,90.23,15.96-27.23,
-0.02,1.39,0.8,69.65,19.53-21.21,
0.02,0.86,0.68,78.47,25.13-17.29,
0.01,0.61,0.63,90.16,21.77-17.36,
0.01,0.45,0.57,98.35,13.72-19.04,
0.04,0.47,0.51,100.38,7.98-22.33,
0.05,0.64,0.44,101.71,5.81-24.01,
0.07,0.72,0.38,98.7,7.91-24.50,
0.03,0.79,0.33,97.86,9.45-26.95,
-0.03,0.79,0.29,89.53,8.89-31.50,
-0.08,0.87,0.27,82.11,4.69-35.14,
-0.15,0.94,0.28,68.81,-39.76,
-0.2,0.98,0.33,61.88,-49,
-0.23,1.03,0.36,61.6,-56.49,
-0.19,1.04,0.36,69.3,-62.02,
-0.13,1.02,0.33,86.8,-66.01,
-0.04,1.01,0.33,98.07,-69.93,
0.07,0.99,0.32,105.07,-73.08,
0.13,0.95,0.27,107.8,-77.7,
0.19,0.92,0.26,105.07,-83.3,
0.2,0.9,0.25,103.32,-91.63,
0.21,0.92,0.27,97.93,-94.71,
0.18,0.91,0.27,91.42,-96.39,
0.19,0.92,0.28,89.39,-96.46,
0.2,0.96,0.27,84.91,-93.66,
0.22,1.01,0.27,81.2,-88.41,
0.22,1.04,0.26,78.05,-82.6,
0.2,1.06,0.25,73.43,-74.83,
0.16,1.04,0.26,68.81,-71.75,
0.13,1.03,0.27,63.07,-65.45,
0.12,0.97,0.25,60.27,-60.34,
0.1,0.94,0.23,57.75,-55.51,
0.09,0.85,0.2,58.52,-47.39,
0.11,0.82,0.18,58.45,-41.86,
0.1,0.77,0.16,60.2,-37.17,
0.13,0.78,0.13,62.65,-34.16,
0.11,0.77,0.13,62.65,-30.03,
0.08,0.76,0.16,61.81,-27.16,
0.03,0.78,0.13,61.95,-25.06,
-0.02,0.8,0.15,60.9,-24.22,
-0.07,0.82,0.15,58.59,-24.43,
-0.07,0.85,0.16,57.47,-28.98,
-0.1,0.87,0.17,54.67,-35.7,
-0.12,0.89,0.17,49.49,-43.4,
-0.11,0.9,0.16,41.58,-52.08,
-0.08,0.9,0.16,33.18,-62.58,
0.11,0.88,0.18,24.36,-66.08,
0.06,0.88,0.16,18.27,-66.5,
0.11,0.89,0.14,11.06,-65.45,
0.17,0.94,0.1,5.74,-63.35,
0.19,0.97,0.1,0.56,-57.33,
0.21,1.01,0.13,-2.94,-49.63,
0.2,1.06,0.15,-0.7,-41.65,
0.17,1.13,0.17,4.55,-35.42,
0.15,1.2,0.2,10.78,-29.61,
0.13,1.25,0.22,12.04,-25.55,
0.12,1.24,0.21,8.4,-25.55,
0.14,1.19,0.2,2.59,-25.83,
0.15,1.13,0.2,-0.77,-25.97,
0.15,1.11,0.2,-1.4,-24.85,
0.14,1.15,0.21,-0.63,-23.1,
0.1,1.22,0.23,-1.75,-20.72,
0.07,1.31,0.25,-4.2,-18.62,
0.06,1.43,0.14,-12.32,-15.89,
0.05,1.54,0.1,-28.14,-10.15,
0,1.56,0.12,-41.65,-2.45,
-0.07,1.54,0.18,-44.66,-2.454.97,
-0.13,1.46,0.23,-42,-5.3210.85,
-0.16,1.41,0.26,-41.3,-9.8013.44,
-0.18,1.35,0.32,-45.43,-12.0413.37,
-0.21,1.3,0.33,-50.61,-12.4613.30,
-0.21,1.23,0.31,-57.54,-13.7912.95,
-0.18,1.16,0.29,-66.36,-13.5112.53,
-0.13,1.09,0.34,-80.22,-9.0312.53,
-0.08,1.01,0.39,-95.34,-2.2414.35,
-0.04,1.03,0.41,-110.81,5.7416.80,
0,1.04,0.4,-127.05,13.1620.37,
0.05,1.03,0.37,-140.21,18.8327.30,
0.08,0.99,0.36,-148.12,20.3033.74,
0.1,0.94,0.38,-152.95,17.3643.54,
0.09,0.95,0.37,-150.92,11.6254.74,
0.05,0.98,0.31,-143.29,2.5263.14,
0.03,0.93,0.3,-130.9,-4.6269.65,
0.03,0.89,0.36,-116.27,-7.0775.53,
0.02,0.92,0.37,-99.54,-6.5878.40,
0.02,0.9,0.38,-87.08,-4.0676.23,
0.01,0.87,0.37,-74.83,0.9173.22,
-0.01,0.78,0.34,-60.34,2.8070.98,
-0.05,0.78,0.34,-52.71,4.6267.62,
-0.04,0.8,0.38,-48.09,7.8462.72,
-0.04,0.84,0.44,-49.56,12.0458.66,
-0.02,0.84,0.52,-50.68,15.0555.09,
-0.04,0.81,0.58,-65.17,21.4250.61,
-0.03,0.74,0.57,-81.62,24.7146.13,
0.01,0.76,0.53,-97.3,27.3043.82,
0.03,0.75,0.51,-108.15,26.9546.06,
0.06,0.73,0.48,-110.25,25.2750.12,
0.1,0.69,0.44,-104.51,28.2154.46,
0.1,0.62,0.39,-90.58,30.5258.38,
0.09,0.62,0.39,-76.51,30.1759.36,
0.08,0.57,0.42,-59.5,33.5355.93,
0.07,0.57,0.4,-49.35,33.8151.87,
0.06,0.55,0.42,-48.02,34.1647.67,
0.01,0.48,0.47,-52.99,35.4243.33,
0.01,0.4,0.47,-61.32,40.1140.53,
0,0.41,0.47,-69.51,43.4038.22,
-0.01,0.45,0.46,-70.42,43.0537.80,
-0.01,0.42,0.51,-73.36,40.1139.34,
0.01,0.41,0.5,-75.81,38.0139.41,
0,0.42,0.53,-78.82,34.8639.41,
0.06,0.4,0.55,-75.04,36.1936.96,
0.07,0.35,0.54,-67.06,18.4832.62,
0.07,0.37,0.53,-53.62,33.3230.73,
0.06,0.4,0.54,-36.33,29.1931.85,
0.07,0.35,0.59,-21.35,27.3730.10,
0.03,0.32,0.64,-7.7,24.1526.25,
0.04,0.38,0.69,4.69,22.1216.94,
0.07,0.39,0.74,14,19.6011.55,
0.11,0.36,0.78,20.79,15.056.44,
0.14,0.32,0.84,27.09,11.970.98,
0.18,0.33,0.82,31.92,11.20-4.48,
0.2,0.38,0.79,34.65,10.29-6.58,
0.21,0.43,0.77,38.99,7.84-8.96,
0.19,0.5,0.75,45.92,4.41-10.50,
0.16,0.55,0.77,49.07,-9.24,
0.12,0.47,0.74,57.68,-14.14,
0.07,0.39,0.73,79.24,-15.4,
0.01,0.39,0.9,103.46,-7.981.89,
-0.1,1.03,1.3,66.92,-10.718.61,
-0.08,1.14,1.07,41.3,-6.167.84,
-0.16,1.41,0.93,85.82,4.83-3.08,
-0.19,1.94,0.99,123.27,2.87-19.67,
-0.13,2.16,0.97,99.75,-33.67,
0.08,1.52,0.74,73.78,8.05-19.60,
0.15,0.84,0.54,80.36,26.04-20.79,
0.06,0.51,0.44,96.74,29.33-21.98,
0.09,0.43,0.41,98.98,18.90-22.33,
0.13,0.46,0.39,91.7,8.05-21.56,
0.09,0.44,0.39,80.57,7.56-26.39,
0.02,0.52,0.31,82.32,10.01-28.77,
-0.06,0.62,0.28,81.48,10.99-35.21,
-0.13,0.72,0.28,75.81,9.45-39.90,
-0.21,0.77,0.31,66.64,2.45-43.05,
-0.28,0.88,0.32,62.44,-52.15,
-0.31,0.98,0.36,65.66,-64.19,
-0.31,1.06,0.37,74.83,-70.42,
-0.24,1.22,0.36,90.93,-71.54,
-0.12,1.15,0.34,104.58,-72.1,
0.14,0.62,0.36,92.47,5.18-26.60,
0.18,0.77,0.4,89.67,5.18-20.72,
0.18,0.82,0.43,87.15,7.91-12.81,
0.14,0.86,0.44,84.21,10.85-5.11,
0.07,0.88,0.42,81.41,12.251.47,
0.05,0.91,0.41,76.93,11.489.73,
0.03,0.89,0.43,69.44,8.7514.56,
0.04,0.85,0.43,63.91,7.0016.94,
0.07,0.81,0.42,54.81,5.0417.57,
0.08,0.78,0.41,47.25,1.0517.92,
0.06,0.76,0.37,39.2,-6.0918.48,
0.03,0.74,0.4,30.24,-11.7618.83,
-0.04,0.73,0.47,26.18,-13.9318.06,
-0.13,0.78,0.51,22.68,-11.4117.78,
-0.24,0.88,0.67,20.23,-1.4717.15,
-0.31,1.11,0.79,22.82,15.6814.91,
-0.28,1.41,0.63,18.62,24.2211.55,
-0.24,1.63,0.39,11.2,16.808.05,
-0.13,1.59,0.09,5.88,7.007.07,
-0.05,1.5,-0.12,0.07,-3.157.14,
0.06,1.31,-0.09,-12.11,-13.586.93,
0.08,1.13,-0.03,-7.98,-14.778.26,
0.14,1.06,0.01,3.08,-10.3610.43,
0.18,1.13,0.18,10.71,-2.8714.98,
0.26,1.18,0.28,12.81,9.7324.01,
0.29,1.4,0.39,7.84,20.4433.46,
0.3,1.5,0.38,-0.77,18.8341.93,
0.24,1.49,0.4,-16.24,11.1345.71,
0.17,1.38,0.46,-27.23,4.9045.43,
0.1,1.33,0.42,-30.94,-1.1241.79,
0.07,1.31,0.37,-25.9,-9.6634.86,
0.04,1.26,0.32,-15.75,-15.8227.16,
0.05,1.23,0.27,-3.22,-16.3817.43,
0.14,1.2,0.23,6.86,-11.627.77,
0.19,1.11,0.19,20.51,-6.51,
0.22,1.05,0.18,28.21,-11.27,
0.23,0.99,0.21,31.78,-14.35,
0.27,0.96,0.25,32.41,3.85-16.17,
0.26,0.95,0.26,33.81,8.19-16.80,
0.27,0.99,0.25,36.33,12.74-16.31,
0.27,1.06,0.25,38.01,15.54-14.63,
0.28,1.1,0.26,36.12,17.36-11.62,
0.26,1.08,0.25,33.18,16.10-8.12,
0.24,1.03,0.25,30.45,13.58-5.46,
0.2,0.94,0.25,30.52,12.04-3.92,
0.16,0.87,0.26,31.5,11.41-3.92,
0.12,0.83,0.27,32.27,12.18-5.60,
0.09,0.8,0.27,31.29,12.88-8.19,
0.07,0.77,0.26,28.7,12.46-11.62,
0.05,0.75,0.23,24.85,11.27-15.61,
0.05,0.74,0.22,20.37,10.22-20.23,
0.06,0.73,0.22,15.54,9.80-22.75,
0.07,0.74,0.24,11.13,10.29-24.36,
0.09,0.76,0.23,6.79,11.41-25.48,
0.11,0.8,0.22,3.08,11.62-25.76,
0.15,0.82,0.19,2.59,10.71-25.34,
0.18,0.84,0.18,0.91,7.70-23.59,
0.2,0.84,0.15,-0.91,2.03-22.40,
0.23,0.81,0.19,-5.18,-24.5,
0.24,0.77,0.21,-10.64,-24.78,
0.23,0.72,0.24,-16.8,-22.82,
0.22,0.69,0.27,-15.89,0.00-16.10,
0.17,0.68,0.24,-11.48,7.77-16.94,
0.11,0.71,0.19,-8.61,13.37-19.11,
0.06,0.76,0.14,-7.56,17.15-20.44,
0.02,0.81,0.1,-8.12,16.59-19.74,
0.03,0.86,0.13,-13.93,12.81-16.03,
0.06,0.87,0.18,-25.76,6.93-10.57,
0.07,0.89,0.25,-37.59,-5.67,
0.09,0.85,0.28,-47.25,-7.980.14,
0.1,0.81,0.28,-53.9,-12.464.20,
0.11,0.81,0.27,-62.23,-15.684.97,
0.12,0.8,0.27,-72.17,-16.663.99,
0.13,0.77,0.29,-83.02,-13.792.87,
0.17,0.83,0.27,-91.98,-8.892.73,
0.18,0.89,0.26,-112.14,-4.625.18,
0.13,0.95,0.32,-128.94,3.0114.63,
0.1,1.03,0.32,-131.18,20.4422.75,
0,1.25,0.32,-140.07,27.8631.99,
-0.04,1.34,0.4,-161.98,16.5244.73,
-0.13,1.44,0.5,-180.39,-6.8656.07,
-0.06,1.41,0.63,-183.68,-24.9963.00,
-0.05,1.4,0.72,-181.09,-34.8662.44,
-0.06,1.38,0.72,-180.04,-33.8856.84,
0,1.39,0.7,-180.04,-23.6650.89,
-0.02,1.26,0.69,-182.91,-6.2343.61,
-0.13,1.03,0.81,-170.31,0.2841.79,
-0.27,0.94,0.9,-141.4,-0.7041.30,
-0.26,0.93,0.85,-115.08,-4.4140.60,
-0.16,0.94,0.73,-98.91,-5.3236.96,
-0.07,0.93,0.62,-80.78,-4.6929.75,
0.04,0.89,0.62,-62.79,-8.2621.77,
0.13,0.89,0.65,-45.99,-10.3614.00,
0.17,0.87,0.68,-25.41,-12.607.28,
0.16,0.79,0.69,-14,-14.49,
0.1,0.71,0.68,-5.88,-22.75,
0.08,0.62,0.66,5.6,-31.36,
0.07,0.56,0.63,17.08,-37.87,
0.08,0.48,0.57,31.01,-42.21,
0.07,0.39,0.51,46.9,-43.89,
0.08,0.34,0.47,60.27,-42.56,
0.09,0.31,0.45,68.88,-40.81,
0.1,0.29,0.46,79.52,-39.48,
0.09,0.25,0.47,90.44,-41.16,
0.08,0.3,0.48,98.91,-45.64,
0.07,0.34,0.52,106.68,-50.47,
0.1,0.42,0.52,110.53,-54.81,
0.12,0.45,0.5,110.11,-58.38,
0.16,0.47,0.44,113.19,-56.42,
0.17,0.52,0.38,109.13,-53.34,
0.18,0.48,0.34,103.74,-49.98,
0.2,0.45,0.3,100.52,5.88-48.86,
0.21,0.48,0.26,97.16,14.49-49.63,
0.2,0.52,0.24,93.59,19.46-47.11,
0.18,0.53,0.24,89.46,20.65-42.63,
0.16,0.53,0.28,87.15,20.86-37.66,
0.12,0.54,0.31,85.89,19.95-32.41,
0.06,0.56,0.34,83.09,17.99-27.72,
-0.01,0.58,0.37,82.74,15.89-22.05,
-0.09,0.61,0.42,83.93,16.10-17.57,
-0.13,0.65,0.48,87.78,16.31-15.54,
-0.13,0.73,0.51,92.05,12.74-13.79,
-0.11,0.81,0.51,94.08,5.88-12.32,
-0.07,0.93,0.5,87.22,-15.47,
0,1.01,0.52,74.69,-27.02,
0.05,1.03,0.52,62.44,-39.55,
0.09,1,0.52,49.77,-44.45,
0.1,0.98,0.51,34.3,-45.57,
0.03,0.92,0.59,21.35,-42.211.19,
-0.02,0.94,0.68,13.58,-38.789.66,
-0.05,1.12,0.71,9.38,-32.9021.28,
-0.05,1.26,0.65,2.94,-30.0329.75,
-0.15,1.37,0.54,-4.41,-26.6736.47,
-0.2,1.43,0.35,2.59,-23.5937.59,
-0.12,1.43,0.06,14.56,-17.2235.35,
-0.05,1.44,-0.14,10.92,-4.4133.18,
-0.01,1.55,-0.01,-21.77,-0.9128.07,
0.05,1.29,0.07,-36.12,5.1118.62,
0.2,1.08,0.09,-39.27,8.8917.01,
0.33,1.16,0.38,-69.93,5.8820.86,
0.4,1.12,0.84,-66.71,9.0327.44,
0.41,1.31,0.9,-62.86,16.1031.64,
0.45,1.34,0.74,-50.26,30.0330.38,
0.29,1.36,0.46,-38.99,38.6426.39,
0.11,1.24,0.19,-16.52,41.9326.32,
-0.01,1.17,0.06,2.66,36.6123.94,
0.02,1.14,0.02,23.73,26.3218.83,
0.06,1.1,0.07,39.34,12.9514.35,
0.14,1.13,0.19,50.68,1.1910.99,
0.19,1.18,0.24,58.87,-7.988.19,
0.22,1.22,0.25,63.56,-11.276.23,
0.27,1.24,0.23,63.49,-6.372.31,
0.26,1.22,0.25,57.68,4.62-3.36,
0.24,1.14,0.28,49.07,20.37-9.45,
0.19,1.06,0.28,42,33.39-13.23,
0.14,0.98,0.27,38.43,38.92-14.56,
0.07,0.94,0.22,38.43,36.54-14.84,
-0.02,0.93,0.17,41.16,22.54-14.70,
-0.09,0.91,0.18,41.79,7.00-14.35,
-0.11,0.87,0.18,41.09,-19.67,
-0.08,0.84,0.17,41.86,-27.51,
-0.03,0.81,0.18,41.86,-32.27,
0.04,0.81,0.21,39.2,-33.95,
0.1,0.8,0.26,33.39,-31.64,
0.16,0.8,0.28,26.81,-27.65,
0.18,0.8,0.29,18.69,-23.52,
0.18,0.79,0.31,4.13,6.86-23.24,
0.18,0.75,0.32,-5.67,12.95-22.26,
0.18,0.73,0.3,-6.51,15.82-19.81,
0.19,0.78,0.29,-6.93,16.59-19.25,
0.21,0.79,0.27,-10.08,14.00-18.62,
0.26,0.78,0.25,-14.21,11.41-16.38,
0.3,0.74,0.22,-11.83,12.39-14.28,
0.31,0.74,0.22,-9.87,14.91-11.41,
0.3,0.72,0.19,-8.12,16.80-8.75,
0.29,0.72,0.19,-7.7,18.06-6.37,
0.27,0.72,0.2,-9.8,17.43-5.39,
0.25,0.72,0.24,-14.35,16.94-4.34,
0.22,0.73,0.29,-17.22,21.63-4.55,
0.17,0.76,0.31,-18.83,27.37-5.53,
0.1,0.81,0.29,-21.07,34.30-8.26,
0.05,0.83,0.21,-23.59,37.31-10.36,
0.03,0.82,0.16,-25.62,36.05-12.60,
0.05,0.8,0.16,-28.49,28.77-13.37,
0.06,0.75,0.13,-31.29,20.51-12.53,
0.07,0.7,0.12,-34.09,13.79-10.22,
0.07,0.66,0.14,-35.63,9.38-7.98,
0.08,0.63,0.17,-38.36,6.79-5.53,
0.07,0.61,0.18,-42.7,5.88-2.73,
0.07,0.62,0.23,-50.19,3.78-2.17,
0.12,0.64,0.27,-55.65,-2.31,
0.16,0.73,0.32,-66.85,-7,
0.19,0.84,0.38,-82.67,-9.103.08,
0.15,0.97,0.44,-89.95,-5.8812.46,
0.1,1.18,0.45,-92.96,3.6423.87,
0.11,1.48,0.45,-105.07,9.7339.62,
0.02,1.56,0.45,-132.58,10.6456.28,
-0.1,1.49,0.51,-151.06,2.0373.71,
-0.13,1.45,0.59,-158.55,-7.1484.07,
-0.12,1.41,0.68,-164.22,-14.7788.62,
-0.11,1.37,0.83,-164.5,-15.3389.67,
-0.11,1.39,0.79,-163.24,-13.1682.95,
-0.07,1.37,0.76,-161.7,-10.2970.07,
-0.03,1.25,0.78,-155.26,6.0260.27,
-0.07,1.12,0.78,-142.59,16.4551.17,
-0.1,1.06,0.76,-114.24,21.2842.49,
-0.13,1.03,0.72,-91.35,21.5637.73,
-0.12,0.97,0.72,-71.33,18.6236.40,
-0.11,0.87,0.71,-48.51,13.7936.19,
-0.12,0.84,0.73,-33.39,4.7630.94,
-0.07,0.82,0.73,-20.58,-3.0123.52,
-0.02,0.78,0.74,-7.7,-4.6915.47,
0.01,0.75,0.72,7.91,-5.327.49,
0.02,0.71,0.68,16.66,-5.533.08,
0.04,0.67,0.63,27.79,-5.460.98,
0.04,0.57,0.59,39.62,-5.25,
0.04,0.49,0.54,48.44,-9.31,
0.01,0.43,0.46,56.7,-16.59,
0.04,0.44,0.42,62.93,-23.52,
0.04,0.42,0.38,68.6,-31.92,
0.06,0.43,0.39,74.41,-40.67,
0.09,0.41,0.38,82.39,-47.32,
0.11,0.41,0.4,88.27,-50.96,
0.11,0.46,0.43,91.84,-52.08,
0.1,0.48,0.45,94.78,-50.54,
0.09,0.49,0.48,98.35,-49.42,
0.06,0.5,0.44,97.79,-48.44,
0.03,0.52,0.42,93.59,1.05-49.63,
0,0.61,0.35,85.61,2.94-48.09,
0.03,0.63,0.26,80.01,3.64-42.35,
0.04,0.62,0.22,73.71,1.75-35.49,
0.03,0.59,0.25,70.21,-32.76,
0.04,0.59,0.3,69.51,-32.27,
0.02,0.57,0.34,73.01,-32.06,
-0.01,0.58,0.35,78.12,-31.5,
-0.03,0.59,0.36,83.23,-30.45,
-0.01,0.65,0.39,84.49,-24.78,
0.03,0.69,0.39,84.77,-19.74,
0.04,0.73,0.37,86.59,-21.14,
0.09,0.76,0.35,88.55,-25.48,
0.1,0.77,0.35,89.32,-29.12,
0.09,0.79,0.38,87.64,-30.94,
0.05,0.81,0.43,83.02,-28.56,
0.03,0.83,0.48,76.65,-22.54,
0.01,0.85,0.52,65.94,-14.91,
0.02,0.88,0.53,55.72,-9.521.19,
0.03,0.91,0.49,43.4,-9.735.04,
0.05,0.92,0.47,28.07,-12.398.54,
0.05,0.87,0.54,15.26,-14.1411.13,
0.01,0.91,0.57,9.45,-10.1513.16,
-0.03,1.02,0.59,4.48,-3.6414.00,
-0.07,1.16,0.54,-0.98,1.5415.54,
-0.12,1.2,0.43,-5.81,-0.4217.36,
-0.14,1.28,0.37,-15.26,-9.1720.09,
-0.12,1.23,0.21,-11.13,-18.8326.11,
-0.11,1.31,-0.05,3.29,-21.8427.37,
-0.07,1.39,0.05,-7.07,-14.7724.57,
-0.01,1.43,0.06,-12.18,9.8014.14,
0.16,1.13,0.05,-29.89,10.1514.21,
0.25,1.03,0.2,-50.12,-8.6119.04,
0.31,0.94,0.48,-56.56,-15.9629.05,
0.46,1.06,0.61,-41.3,-7.4935.42,
0.47,1.3,0.66,-28.7,8.8937.38,
0.38,1.54,0.51,-1.05,24.0136.68,
0.26,1.65,0.31,-7.14,24.5735.07,
0.18,1.57,0.24,-6.16,15.6133.04,
0.12,1.39,0.25,-4.69,6.2327.09,
0.11,1.15,0.27,3.64,-0.4918.69,
0.16,1.08,0.27,20.37,-4.4112.95,
0.2,1.09,0.28,37.1,-5.117.91,
0.21,1.16,0.28,53.48,-3.151.89,
0.17,1.21,0.28,58.94,2.17-5.67,
0.12,1.24,0.29,57.19,7.84-12.88,
0.09,1.25,0.26,53.97,11.83-20.02,
0.11,1.22,0.27,50.82,13.58-23.17,
0.12,1.18,0.26,45.01,11.83-23.87,
0.12,1.12,0.2,41.3,7.63-24.43,
0.1,1.04,0.16,40.39,2.03-24.50,
0.06,0.93,0.15,42.49,-28.98,
0.03,0.87,0.14,45.71,-34.72,
0.01,0.84,0.12,48.51,-38.99,
0,0.82,0.12,49.21,-43.47,
0.01,0.82,0.14,47.67,-47.95,
0.02,0.83,0.16,43.75,-51.8,
0.03,0.83,0.18,39.06,-55.23,
0.04,0.83,0.2,34.16,-57.82,
0.07,0.81,0.19,29.33,-58.38,
0.1,0.78,0.16,24.78,-58.24,
0.12,0.74,0.14,20.86,-55.44,
0.13,0.69,0.12,16.1,-50.89,
0.13,0.65,0.17,8.47,-43.33,
0.13,0.66,0.21,0.91,-37.66,
0.13,0.73,0.21,-5.81,-33.74,
0.12,0.8,0.2,-14.14,-35.21,
0.12,0.84,0.21,-27.09,-39.9,
0.16,0.82,0.23,-32.34,-40.18,
0.21,0.84,0.21,-32.41,-37.94,
0.2,0.83,0.21,-35.77,-33.6,
0.17,0.78,0.18,-41.65,-30.94,
0.17,0.73,0.11,-45.99,-30.24,
0.15,0.69,0.07,-51.87,-28.49,
0.14,0.62,0.07,-53.9,-26.95,
0.12,0.55,0.12,-50.96,-28.42,
0.1,0.49,0.17,-49.28,-29.05,
0.08,0.45,0.18,-46.06,-28.42,
0.06,0.46,0.16,-42.63,-26.6,
0.03,0.44,0.19,-39.48,-25.2,
0.03,0.46,0.17,-36.61,-24.29,
0.04,0.49,0.15,-34.58,-22.33,
0.07,0.54,0.11,-34.23,-20.23,
0.1,0.63,0.06,-36.4,-20.02,
0.1,0.74,0.09,-42.84,-22.96,
0.04,0.88,0.16,-53.34,-22.96,
-0.02,1.04,0.27,-64.89,-33.3211.97,
-0.07,1.29,0.43,-74.9,-47.6027.37,
-0.07,1.53,0.52,-83.37,-60.2744.94,
-0.11,1.73,0.6,-93.94,-73.2265.59,
-0.09,1.71,0.69,-105.35,-80.9978.61,
-0.08,1.64,0.72,-116.48,-85.1984.91,
-0.03,1.52,0.78,-117.81,-81.2785.54,
0.08,1.54,0.83,-116.69,-69.8682.18,
0.15,1.53,0.72,-127.96,-50.1974.41,
0.17,1.45,0.7,-140.28,-35.7065.03,
0.16,1.27,0.74,-135.52,-25.7654.53,
0.11,1.25,0.76,-120.96,-22.3348.51,
0.14,1.26,0.69,-107.45,-21.1440.46,
0.14,1.21,0.68,-94.64,-26.5333.74,
0.17,1.15,0.69,-74.06,-32.6228.49,
0.22,1.07,0.79,-46.55,-30.6624.01,
0.2,1.01,0.89,-30.94,-22.9616.17,
0.15,1.02,0.91,-25.06,-14.287.70,
0.17,0.94,0.86,-29.26,-5.951.75,
0.14,0.93,0.77,-30.66,-10.08,
0.11,0.88,0.72,-20.93,-15.96,
0.1,0.83,0.68,-7.56,-21,
0.09,0.76,0.65,6.72,-24.08,
0.07,0.69,0.58,19.46,-25.9,
0.07,0.61,0.5,29.33,-27.3,
0.05,0.56,0.44,35.77,-27.58,
0.04,0.5,0.41,39.13,-31.01,
0.03,0.45,0.37,42.21,-35.84,
0.02,0.43,0.35,45.15,-42.14,
0.03,0.42,0.36,48.72,-49.84,
0.03,0.43,0.36,52.29,-55.02,
0.03,0.43,0.35,55.23,-57.47,
0.02,0.44,0.34,54.46,-56.77,
0.02,0.44,0.33,51.8,-55.02,
0.02,0.44,0.32,51.59,-53.62,
0.02,0.43,0.29,52.5,0.14-52.15,
0.02,0.43,0.29,54.25,-51.94,
0.02,0.43,0.3,56,-50.75,
0.03,0.45,0.31,58.31,-50.82,
0.03,0.47,0.33,66.5,-50.89,
0.03,0.5,0.37,72.1,-52.85,
0.03,0.52,0.39,76.58,-55.44,
0.05,0.53,0.36,79.8,-59.22,
0.09,0.57,0.32,80.85,-62.02,
0.1,0.59,0.33,78.33,-62.79,
0.12,0.57,0.36,74.62,-62.79,
0.14,0.57,0.39,71.89,-60.76,
0.16,0.58,0.43,72.38,-56.63,
0.18,0.61,0.47,73.64,-49.7,
0.18,0.65,0.49,74.41,-41.44,
0.18,0.71,0.5,74.62,-32.62,
0.2,0.77,0.51,70.77,-24.57,
0.21,0.85,0.51,64.68,-17.78,
0.23,0.94,0.51,54.74,-10.220.28,
0.24,0.99,0.52,44.45,-7.633.78,
0.23,0.99,0.56,35.07,-6.376.02,
0.22,0.97,0.59,27.37,-7.427.56,
0.21,0.96,0.63,20.3,-9.878.68,
0.17,0.9,0.64,13.23,-13.309.52,
0.11,0.84,0.63,6.37,-18.2011.13,
0.01,0.78,0.68,1.61,-22.8913.09,
-0.15,0.82,0.72,-0.91,-26.1818.48,
-0.16,1.03,0.74,0.7,-22.2624.29,
-0.18,1.18,0.7,7.42,-18.6925.48,
-0.29,1.28,0.52,11.9,-29.5426.11,
-0.33,1.22,0.14,32.76,-46.7628.28,
-0.28,1.32,-0.18,50.4,-55.4431.22,
-0.19,1.42,-0.08,42.98,-52.9932.83,
-0.12,1.42,0.03,40.04,-45.5029.19,
-0.1,1.42,-0.18,28.28,-52.9921.14,
-0.06,1.26,-0.21,21.91,-68.3916.59,
-0.02,1.3,0.17,9.8,-74.6212.53,
0.13,1.45,0.4,3.36,-71.968.40,
0.27,1.64,0.38,9.31,-60.133.01,
0.28,1.66,0.33,7.49,-47.25,
0.19,1.58,0.27,-5.39,-48.86,
0.13,1.37,0.14,-3.92,-54.53,
0.12,1.24,0.03,9.8,-61.32,
0.11,1.2,0.01,26.11,-69.51,
0.07,1.18,0.01,40.6,-79.66,
0.04,1.18,-0.01,54.53,-88.62,
0.01,1.23,0,68.32,-93.73,
0.02,1.28,0.02,74.41,-94.36,
0,1.3,-0.02,70.77,-97.58,
0.01,1.29,-0.04,61.53,-99.19,
0.03,1.21,-0.04,52.29,-98.98,
0.04,1.14,-0.04,46.48,-98.56,
0.02,1.09,0,41.93,-101.78,
0,1.06,0.01,39.41,-105.56,
-0.02,1.02,0.03,37.03,-110.88,
-0.05,0.98,0.04,33.39,-118.51,
-0.06,0.94,0.08,29.47,-123.97,
-0.09,0.88,0.08,26.32,-126.56,
-0.1,0.84,0.06,24.29,-127.47,
-0.09,0.82,0.01,22.75,-129.01,
-0.06,0.8,-0.03,20.86,-130.9,
-0.02,0.78,-0.05,18.83,-133.42,
0.04,0.75,-0.05,18.13,-135.1,
0.09,0.76,-0.02,17.29,-135.1,
0.13,0.77,0.01,16.24,-132.72,
0.16,0.77,0.04,15.33,-130.27,
0.19,0.76,0.06,15.75,-128.17,
0.21,0.77,0.08,17.57,-126,
0.22,0.78,0.25,18.27,-123.62,
0.26,0.82,0.14,17.71,-122.01,
0.29,0.9,0.15,17.99,-120.89,
0.3,0.96,0.1,14.63,-114.8,
0.34,0.98,0.06,9.38,-103.25,
0.35,0.93,0.08,7.84,-92.4,
0.34,0.89,0.09,9.45,-83.93,
0.29,0.89,0.11,7.98,-77.14,
0.3,0.9,0.1,5.95,-69.93,
0.33,0.93,0.11,4.97,-64.61,
0.35,0.96,0.13,4.41,-58.38,
0.37,0.99,0.16,4.06,-52.71,
0.36,1.02,0.19,0,-46.76,
0.33,1.06,0.19,-6.3,-41.300.77,
0.3,1.11,0.16,-16.59,-38.855.18,
0.28,1.18,0.15,-31.08,-37.1011.83,
0.23,1.25,0.15,-46.62,-35.6320.09,
0.09,1.29,0.16,-60.13,-36.1932.20,
-0.01,1.3,0.22,-88.69,-36.8246.83,
-0.13,1.31,0.26,-78.89,-36.8960.97,
-0.25,1.33,0.29,-86.52,-41.0971.05,
-0.35,1.31,0.3,-98.77,-48.7978.05,
-0.39,1.19,0.27,-110.04,-58.9482.04,
-0.4,1.13,0.28,-114.31,-68.5381.13,
-0.42,1.14,0.29,-114.8,-73.5777.28,
-0.42,1.24,0.36,-111.37,-73.8570.70,
-0.41,1.34,0.41,-108.08,-75.4662.86,
-0.4,1.47,0.37,-104.93,-77.4953.20,
-0.33,1.45,0.32,-101.29,-75.1142.00,
-0.28,1.38,0.27,-97.79,-71.2632.20,
-0.2,1.24,0.22,-94.01,-68.6722.47,
-0.18,1.13,0.26,-91.49,-67.6213.58,
-0.15,0.99,0.31,-86.73,-64.544.20,
-0.06,1.03,0.35,-84,-58.17,
0.02,1.03,0.38,-83.65,-52.36,
0.05,0.97,0.38,-78.12,-42.35,
0.05,0.93,0.33,-73.08,-38.714.69,
0.03,0.87,0.28,-69.58,-37.529.52,
-0.02,0.84,0.27,-70.49,-37.5912.74,
-0.03,0.8,0.27,-72.59,-38.6415.40,
-0.04,0.76,0.29,-73.5,-38.9216.24,
-0.07,0.7,0.3,-67.97,-39.6212.67,
-0.08,0.62,0.31,-56.49,-40.607.91,
-0.11,0.56,0.33,-43.89,-43.752.31,
-0.09,0.52,0.33,-32.76,-49.77,
-0.08,0.52,0.34,-24.08,-53.97,
-0.05,0.52,0.34,-19.46,-58.17,
-0.03,0.54,0.35,-17.99,-78.05,
0.01,0.53,0.37,-14.98,-63.28,
0,0.53,0.38,-11.48,-63.07,
0.01,0.55,0.34,-7.84,-61.18,
0,0.55,0.3,2.38,-61.18,
-0.04,0.53,0.3,12.39,-62.79,
-0.05,0.54,0.33,20.79,-65.38,
-0.04,0.55,0.38,29.19,-70.07,
-0.01,0.58,0.42,38.22,-74.34,
0.05,0.63,0.43,44.03,-79.1,
0.11,0.67,0.42,48.16,-82.04,
0.18,0.72,0.39,54.04,-84.84,
0.25,0.76,0.36,61.25,-84,
0.27,0.8,0.36,68.39,-81.76,
0.28,0.82,0.38,74.83,-79.66,
0.23,0.85,0.44,73.85,-79.73,
0.16,0.83,0.54,70.91,-77.28,
0.12,0.82,0.64,71.96,-70.28,
0.08,0.86,0.73,65.52,-61.25,
0.06,0.95,0.75,50.47,-53.55,
0.08,1.05,0.69,29.4,-45.22,
0.1,1.11,0.66,12.11,-37.31,
0.11,1.18,0.66,2.94,-28.84,
0.16,1.29,0.7,-5.32,-22.54,
0.22,1.3,0.73,-20.51,-24.714.27,
0.28,1.24,0.69,-34.93,-28.007.35,
0.28,1.1,0.62,-47.11,-30.878.75,
0.28,0.84,0.57,-52.57,-31.0110.50,
0.25,0.69,0.51,-49.35,-28.4211.55,
0.16,0.61,0.5,-37.24,-22.9610.08,
0,0.67,0.52,-16.87,-19.327.91,
-0.17,0.83,0.54,2.87,-18.135.67,
-0.33,1.12,0.44,21.63,-20.440.35,
-0.44,1.36,0.32,31.08,-32.62,
-0.44,1.47,0.27,22.19,-45.85,
-0.3,1.37,0.23,3.29,-56.7,
-0.17,1.03,0.18,-4.97,-59.78,
-0.09,0.74,0.21,5.53,-62.163.99,
-0.07,0.59,0.19,19.81,-65.037.42,
-0.01,0.61,0.17,28.56,-64.898.26,
0,0.66,0.15,38.92,-59.645.25,
-0.04,0.75,0.09,43.33,-52.5,
-0.11,0.87,0,47.6,-49.07,
-0.14,0.98,-0.06,50.4,-50.68,
-0.13,1.06,-0.07,51.52,-51.38,
-0.15,1.14,-0.04,54.32,-53.76,
-0.2,1.22,0,51.94,-61.95,
-0.23,1.19,0,47.88,-73.85,
-0.16,1.13,0.04,49.21,-93.59,
-0.09,1.05,0.1,54.81,-101.78,
-0.02,0.98,0.12,62.72,-105.7,
0.01,0.95,0.14,65.17,-107.87,
0.04,0.94,0.14,64.89,-108.15,
0.06,0.9,0.13,62.72,-105.42,
0.05,0.92,0.1,58.8,-105.56,
0.04,0.93,0.05,53.76,-108.92,
0.04,0.94,0.02,50.12,-112.91,
0.05,0.95,0.04,46.34,-114.17,
0.04,0.92,0,45.08,-118.86,
0.05,0.94,0.01,41.79,-138.11,
0.07,0.98,0.01,38.36,-122.78,
0.11,1.01,0.03,36.4,-120.19,
0.12,1.04,0.06,34.02,-118.37,
0.12,1.05,0.08,31.01,-115.22,
0.11,1.05,0.09,27.37,-112.56,
0.1,1.01,0.09,25.27,-110.95,
0.1,0.98,0.08,22.54,-109.27,
0.09,0.94,0.06,19.18,-109.48,
0.08,0.93,0.05,18.48,-112.28,
0.08,0.95,0.04,18.41,-113.75,
0.08,0.95,0.03,18.97,-114.24,
0.09,0.98,0.01,20.37,-113.89,
0.08,1.02,0,19.95,-113.68,
0.07,1.04,0.01,19.95,-114.73,
0.07,1.03,0.01,18.9,-113.19,
0.07,1,0.02,17.43,-113.33,
0.07,0.96,0.04,18.34,-112.98,
0.07,0.95,0.06,17.36,-113.75,
0.08,0.94,0.06,15.89,-114.31,
0.08,0.95,0.06,15.96,-115.64,
0.09,0.97,0.05,16.45,-115.71,
0.1,0.99,0.02,17.64,-115.22,
0.11,1.04,-0.01,16.87,-115.5,
0.13,1.02,-0.02,15.61,-113.89,
0.14,1.01,-0.03,13.86,-111.3,
0.15,0.99,-0.02,11.97,-108.57,
0.14,0.98,0,9.52,-105.98,
0.13,0.98,0.03,8.96,-102.48,
0.11,0.99,0.04,9.17,-99.68,
0.08,1.01,0.05,11.41,-97.58,
0.06,1.01,0.06,12.74,-96.11,
0.05,1.01,0.03,12.6,-94.36,
0.08,1,0.01,10.5,-90.51,
0.11,0.98,0.01,7.77,-85.96,
0.12,0.97,0.03,6.09,-83.09,
0.11,0.97,0.07,3.29,-81.48,
0.13,0.97,0.11,1.54,-80.43,
0.11,0.97,0.12,3.08,-80.99,
0.11,0.98,0.12,5.25,-83.37,
0.11,1,0.13,6.72,-86.31,
0.14,1,0.13,5.6,-91.35,
0.18,1.01,0.1,1.75,-96.6,
0.21,1.01,0.1,-5.74,-99.61,
0.24,1.03,0.09,-13.16,-98.77,
0.26,1.05,0.11,-20.16,-93.03,
0.26,1.25,0.11,-29.75,-80.64,
0.22,1.16,0.11,-40.88,-72.387.14,
0.17,1.18,0.12,-52.08,-66.4319.25,
0.12,1.17,0.1,-63.14,-59.5732.34,
0.07,1.12,0.1,-76.23,-51.1745.01,
0.01,1.1,0.15,-89.39,-45.7857.33,
-0.04,1.09,0.19,-104.58,-42.1465.45,
-0.06,1.08,0.24,-118.3,-38.8571.54,
-0.08,1.09,0.27,-128.1,-34.8673.43,
-0.21,1.15,0.29,-136.57,-33.8170.77,
-0.25,1.23,0.32,-133.63,-29.8265.59,
-0.36,1.27,0.3,-128.87,-27.0956.98,
-0.4,1.34,0.23,-125.65,-26.1847.74,
-0.42,1.36,0.2,-123.76,-27.6537.59,
-0.39,1.27,0.2,-121.73,-32.5530.31,
-0.34,1.15,0.21,-115.5,-38.7824.71,
-0.34,1.05,0.25,-110.18,-45.2218.13,
-0.27,0.92,0.28,-103.18,-51.7312.11,
-0.2,0.85,0.29,-93.03,-59.369.45,
-0.13,0.86,0.32,-86.73,-66.158.33,
-0.12,0.89,0.33,-79.94,-71.268.47,
-0.1,0.92,0.35,-72.59,-75.819.87,
-0.05,0.88,0.37,-60.13,-78.7514.98,
-0.04,0.9,0.38,-45.15,-81.9020.93,
-0.02,0.93,0.41,-43.68,-82.1824.01,
0.01,0.91,0.44,-49.7,-79.0325.48,
0.05,0.87,0.45,-56.28,-72.4521.77,
0.1,0.84,0.46,-63.14,-63.7015.40,
0.19,0.79,0.43,-67.97,-50.408.68,
0.22,0.72,0.37,-66.29,-39.482.45,
0.21,0.67,0.32,-58.8,-34.09,
0.19,0.64,0.31,-51.66,-30.52,
0.16,0.62,0.35,-45.01,-28.07,
0.12,0.59,0.39,-37.03,-28.77,
0.07,0.58,0.41,-28.77,-31.85,
0.02,0.56,0.44,-22.4,-35.07,
-0.01,0.54,0.43,-15.75,-37.31,
-0.02,0.52,0.42,-11.55,-38.71,
-0.02,0.52,0.39,-6.93,-38.71,
0,0.53,0.4,-2.1,-39.34,
0.03,0.54,0.41,3.15,-38.57,
0.04,0.58,0.43,4.97,-39.06,
0.05,0.6,0.45,9.66,-40.46,
0.05,0.61,0.48,13.16,-43.33,
0.08,0.63,0.52,14.7,-45.29,
0.08,0.66,0.53,14.98,-46.76,
0.13,0.68,0.53,14.49,-45.92,
0.17,0.67,0.52,15.19,-45.43,
0.2,0.66,0.49,20.72,-44.73,
0.19,0.67,0.47,27.23,-43.05,
0.18,0.69,0.49,29.61,-41.3,
0.17,0.71,0.54,33.04,-39.41,
0.18,0.75,0.59,34.93,-36.26,
0.19,0.8,0.63,35.21,-33.53,
0.21,0.83,0.65,33.81,-28.98,
0.24,0.86,0.66,32.97,-24.92,
0.27,0.89,0.66,29.05,-21.56,
0.29,0.93,0.65,24.5,-17.99,
0.3,0.96,0.64,19.39,-13.02,
0.28,0.98,0.66,12.11,-9.032.52,
0.23,0.99,0.7,2.8,-5.253.78,
0.19,0.98,0.73,-6.65,2.523.92,
0.16,0.98,0.76,-16.73,10.431.82,
0.14,0.95,0.77,-21.56,18.13-0.14,
0.18,0.9,0.78,-24.43,24.78-0.84,
0.18,0.84,0.77,-22.68,29.050.07,
0.18,0.78,0.75,-17.01,29.472.31,
0.15,0.74,0.71,-8.89,24.854.27,
0.08,0.72,0.65,0.07,19.604.41,
0,0.7,0.62,12.46,14.144.34,
-0.06,0.73,0.6,24.43,10.642.45,
-0.14,0.87,0.57,33.88,8.26-1.12,
-0.23,1.08,0.54,40.18,5.25-5.39,
-0.35,1.22,0.48,41.44,-7.21,
-0.51,1.36,0.36,40.32,-17.43,
-0.56,1.47,0.28,36.19,-27.37,
-0.54,1.53,0.25,10.57,-45.15,
-0.46,1.51,0.21,-20.02,-68.04,
-0.32,1.34,0.23,-30.87,-77.42,
-0.13,1.02,0.13,-19.6,-80.01,
0.04,0.87,0.1,-9.45,-79.73,
0.1,0.75,0.05,2.59,-76.65,
0.14,0.71,-0.01,13.02,-69.93,
0.12,0.7,-0.01,20.23,-60.2,
0.11,0.73,0,26.95,-47.81,
