aX,aY,aZ,gX,gY,gZ
-0.08,0.96,0.16,-0.7,-1.190.98,
-0.09,0.96,0.16,-0.49,-1.120.98,
-0.1,0.97,0.16,0,-1.260.77,
-0.1,0.97,0.16,0.7,-1.680.49,
-0.09,0.97,0.16,0.49,-1.960.42,
-0.08,0.97,0.16,0.7,-2.240.35,
-0.08,0.97,0.17,0.56,-2.310.70,
-0.07,0.97,0.17,-0.21,-2.030.70,
-0.06,0.96,0.17,-0.42,-1.120.28,
-0.07,0.96,0.16,-0.77,-1.050.98,
-0.07,0.96,0.17,-1.47,-0.770.91,
-0.07,0.96,0.15,-1.68,-0.420.84,
-0.07,0.96,0.16,-1.19,0.140.84,
-0.08,0.97,0.16,-1.33,0.910.84,
-0.08,0.96,0.17,-1.19,0.840.56,
-0.08,0.96,0.17,-0.63,0.630.91,
-0.08,0.97,0.18,-0.49,0.701.05,
-0.08,0.97,0.18,-0.77,0.980.84,
-0.09,0.96,0.17,-0.56,1.400.98,
-0.09,0.96,0.18,-0.21,1.260.84,
-0.1,0.96,0.17,-0.14,1.050.91,
-0.09,0.96,0.17,0.28,0.700.70,
-0.1,0.96,0.17,0.42,0.490.91,
-0.09,0.96,0.17,0.84,0.070.28,
-0.09,0.96,0.18,-0.14,-0.561.12,
-0.09,0.96,0.19,-0.35,-1.050.91,
-0.08,0.97,0.19,17.78,-1.260.49,
-0.09,0.97,0.19,0.14,-1.050.56,
-0.09,0.97,0.19,0,-0.910.77,
-0.09,0.97,0.18,-0.07,-1.050.35,
-0.1,0.97,0.17,-0.14,-1.330.35,
-0.09,0.96,0.16,-0.28,-1.260.49,
-0.09,0.96,0.16,-0.56,-1.54-0.21,
-0.09,0.97,0.16,-0.77,-1.61-0.14,
-0.08,0.96,0.15,-1.33,-1.68-0.21,
-0.07,0.96,0.16,-1.4,-2.38-0.21,
-0.07,0.96,0.16,-1.26,-2.59-0.07,
-0.07,0.96,0.16,-1.4,-3.220.42,
-0.07,0.96,0.17,-1.12,-3.640.91,
-0.07,0.95,0.18,-0.84,-2.871.19,
-0.07,0.95,0.18,-0.14,-1.331.54,
-0.07,0.95,0.18,0.42,-0.491.82,
-0.08,0.96,0.18,0.7,0.421.89,
-0.07,0.97,0.17,1.47,1.192.38,
-0.08,0.96,0.17,1.19,0.701.82,
-0.08,0.96,0.17,1.19,0.701.82,
-0.07,0.97,0.18,0.56,0.632.10,
-0.07,0.97,0.18,0.14,0.141.68,
-0.07,0.97,0.19,0.28,0.981.33,
-0.07,0.96,0.18,0.7,1.121.47,
-0.08,0.96,0.18,0.77,0.631.40,
-0.08,0.95,0.19,0.98,1.121.40,
-0.09,0.96,0.19,0.7,0.980.98,
-0.09,0.96,0.19,0.56,0.981.05,
-0.09,0.96,0.2,0.7,0.840.91,
-0.1,0.96,0.19,0.84,0.140.98,
-0.1,0.96,0.2,0.49,-0.701.05,
-0.1,0.96,0.19,0.42,-0.840.56,
-0.1,0.96,0.19,0.7,-1.610.21,
-0.1,0.96,0.18,0.7,-2.170.28,
-0.1,0.96,0.18,0.56,-2.590.21,
-0.1,0.96,0.18,0.28,-3.50-0.07,
-0.1,0.96,0.18,0,-4.130.42,
-0.1,0.96,0.17,-0.07,-4.620.00,
-0.1,0.96,0.17,0.35,-5.04-0.28,
-0.1,0.96,0.16,0.49,-5.67-0.21,
-0.1,0.95,0.17,0.77,-7.280.28,
-0.09,0.95,0.18,0.98,-8.050.14,
-0.09,0.96,0.19,0.42,-8.470.28,
-0.09,0.96,0.18,0.63,-7.70-0.28,
-0.09,0.96,0.18,0.7,-7.56-0.21,
-0.1,0.95,0.18,0.84,-8.260.07,
-0.1,0.97,0.18,1.26,-10.010.00,
-0.1,0.96,0.19,1.82,-10.220.49,
-0.12,0.96,0.19,2.38,-11.130.49,
-0.12,0.93,0.19,3.78,-11.900.14,
-0.12,0.94,0.2,4.34,-14.000.91,
-0.13,0.93,0.21,5.32,-15.611.47,
-0.15,0.93,0.22,5.95,-17.012.24,
-0.16,0.95,0.22,7.07,-17.502.59,
-0.17,0.97,0.22,6.65,-18.693.01,
-0.06,1.1,0.22,10.36,-17.43-0.70,
-0.17,0.92,0.18,5.18,-17.29-0.63,
-0.17,0.92,0.19,9.45,-24.01-0.35,
-0.18,0.93,0.2,11.13,-26.53-0.35,
-0.18,0.95,0.16,9.8,-29.54-0.21,
-0.12,0.97,0.18,11.2,-31.92-0.63,
-0.08,0.98,0.17,9.73,-31.01-0.91,
-0.04,0.98,0.15,8.05,-29.82-0.77,
-0.02,0.98,0.15,7.35,-28.00-0.70,
-0.01,0.98,0.16,7.21,-24.85-0.70,
0,0.99,0.15,6.23,-21.77-0.49,
0.01,1,0.15,4.06,-18.76-0.49,
0.02,1.01,0.15,2.45,-15.33-0.98,
0.03,1.01,0.15,1.33,-11.97-1.12,
0.04,1,0.15,-0.21,-8.61-0.77,
0.04,0.98,0.14,-2.03,-2.80-0.49,
0.04,0.97,0.12,-2.24,0.770.07,
0.04,0.97,0.12,-2.38,3.85-0.14,
0.03,0.97,0.1,-2.73,6.580.07,
0.03,0.98,0.12,-3.08,9.030.21,
0.01,0.98,0.12,-3.71,11.27-0.21,
0.01,0.99,0.12,-3.71,13.86-0.28,
-0.01,0.99,0.12,-4.06,16.03-0.42,
-0.03,0.98,0.12,-4.06,17.22-0.63,
-0.06,0.97,0.14,-3.92,17.08-0.28,
-0.08,0.96,0.14,-3.64,16.590.14,
-0.1,0.96,0.15,-3.36,15.61-17.78,
-0.11,0.95,0.16,-3.29,13.580.28,
-0.12,0.95,0.17,-2.94,11.200.35,
-0.13,0.95,0.19,-2.31,9.03-0.07,
-0.14,0.94,0.2,-0.56,7.280.21,
-0.14,0.93,0.2,0.7,5.320.21,
-0.14,0.94,0.2,1.33,2.520.49,
-0.14,0.94,0.21,1.26,-0.140.91,
-0.14,0.96,0.21,1.4,-1.261.61,
-0.13,0.97,0.2,1.05,-3.920.98,
-0.13,0.97,0.18,0.42,-5.320.84,
-0.11,0.97,0.18,-0.14,-6.37-0.07,
-0.09,0.97,0.14,-0.84,-9.380.70,
-0.07,0.96,0.15,-0.98,-12.880.49,
-0.06,0.99,0.05,0.21,-18.13-0.77,
-0.01,0.95,0.24,5.18,-17.360.35,
-0.03,0.98,0.29,-1.4,-3.85-1.75,
-0.04,0.96,0.06,12.11,-6.09-1.47,
0.02,1.07,0.24,-3.36,-6.02-1.75,
-0.02,0.89,0.19,-7.7,-0.842.52,
-0.04,0.97,0.14,-5.46,3.222.94,
-0.07,1.01,0.09,-3.15,-2.310.70,
-0.08,1.03,0.12,-7,-7.42-0.35,
-0.1,0.99,0.15,-9.73,-8.540.28,
-0.09,0.97,0.17,-9.17,-8.750.35,
-0.06,0.95,0.19,-9.45,-8.680.91,
-0.04,0.93,0.19,-5.81,-6.370.63,
-0.07,0.99,0.17,-2.73,-5.04-0.56,
-0.05,0.92,0.25,1.82,1.05-0.70,
-0.05,0.96,0.13,1.75,-3.08-0.35,
-0.07,1,0.14,-0.56,-7.35-0.70,
-0.09,1,0.19,-2.59,-7.42-1.47,
-0.11,0.98,0.23,-3.22,-4.97-2.73,
-0.11,1,0.21,-4.69,-3.29-5.39,
-0.12,0.92,0.19,-4.48,-5.18-4.55,
-0.1,0.92,0.18,-5.53,-8.05-3.85,
-0.08,0.9,0.16,-2.73,-11.55-0.91,
-0.1,0.96,0.17,-1.89,-13.72-0.63,
-0.07,0.92,0.17,0.28,-14.140.77,
-0.03,0.94,0.22,0.98,-12.391.75,
-0.08,0.97,0.23,-1.82,-8.612.45,
-0.14,0.96,0.23,-4.9,-2.731.47,
-0.12,0.97,0.21,-3.92,-0.490.84,
-0.12,0.92,0.16,-1.19,-4.201.75,
-0.14,0.96,0.15,-0.84,-10.151.26,
-0.08,0.95,0.19,0.91,-10.15-1.47,
-0.06,0.94,0.18,2.66,-11.97-1.12,
-0.07,0.95,0.21,2.8,-12.600.84,
-0.06,0.95,0.24,1.75,-7.98-0.07,
-0.08,0.92,0.23,3.5,-4.48-0.35,
-0.1,0.97,0.22,1.05,-3.22-0.14,
-0.09,0.98,0.22,-1.4,-1.54-0.63,
-0.11,0.98,0.21,-4.13,-0.14-0.63,
-0.11,1.02,0.19,-8.4,0.00-1.54,
-0.1,0.99,0.22,-11.76,-1.47-2.17,
-0.1,0.95,0.21,-12.67,-1.05-1.54,
-0.12,0.95,0.21,-13.51,-1.96-1.89,
-0.12,0.95,0.21,-14.77,-2.31-2.45,
-0.1,0.97,0.23,-15.82,-1.05-3.22,
-0.1,1,0.23,-20.65,-0.77-3.43,
-0.12,0.96,0.24,-24.5,1.26-3.29,
-0.11,0.91,0.22,-22.68,2.73-1.75,
-0.11,0.85,0.22,-18.13,2.451.19,
-0.08,0.89,0.22,-13.02,2.732.10,
-0.08,0.94,0.23,-13.72,2.942.52,
-0.09,0.99,0.26,-20.02,6.582.87,
-0.15,1,0.27,-26.81,10.570.84,
-0.17,0.98,0.25,-30.52,13.23-0.28,
-0.03,0.95,0.29,-34.44,22.96-0.42,
-0.25,0.81,0.15,-25.76,7.772.52,
-0.02,0.92,0.23,-17.64,7.702.45,
-0.05,0.94,0.21,-15.89,3.853.71,
-0.09,0.98,0.18,-13.23,-3.923.50,
-0.07,0.99,0.2,-13.72,-6.512.45,
-0.13,0.98,0.25,-15.54,-6.721.82,
-0.12,1.04,0.26,-23.94,-7.28-2.03,
-0.11,0.94,0.31,-26.46,-9.10-1.82,
-0.06,1.02,0.39,-35.21,-0.70-5.88,
-0.23,0.96,0.43,-34.93,1.61-7.35,
-0.07,0.79,0.25,-30.8,-0.07-4.83,
-0.09,0.86,0.31,-10.5,3.71-1.75,
-0.09,1.05,0.44,-29.54,4.55-5.39,
-0.05,0.72,0.31,-11.41,0.21-1.47,
-0.1,0.98,0.31,-25.76,0.42-2.31,
-0.09,0.91,0.32,-9.31,-0.84-2.66,
-0.05,0.92,0.28,-6.23,-4.55-4.41,
-0.08,0.84,0.27,6.37,-3.71-0.49,
-0.07,0.93,0.27,8.26,-5.60-0.49,
-0.09,0.94,0.29,6.65,-7.42-1.96,
-0.08,0.9,0.28,10.71,-7.00-3.50,
-0.07,0.91,0.32,16.24,-5.60-2.10,
-0.08,0.96,0.38,16.73,0.35-4.48,
-0.12,0.96,0.41,7.07,7.28-4.62,
-0.12,0.86,0.32,18.97,8.26-2.59,
-0.13,0.88,0.37,21.42,11.76-0.21,
-0.12,1.07,0.25,0.84,16.940.56,
-0.08,1.01,0.29,1.12,15.823.78,
-0.07,1.01,0.27,-0.91,11.903.01,
-0.06,1.03,0.26,-3.64,8.401.96,
-0.08,0.98,0.26,-7,6.792.03,
-0.11,0.95,0.27,-6.79,7.352.38,
-0.11,0.91,0.27,-7.21,9.033.71,
-0.11,0.91,0.27,-6.51,8.333.43,
-0.11,0.93,0.26,-5.81,6.932.45,
-0.11,0.93,0.27,-4.69,5.741.54,
-0.12,0.92,0.29,-2.45,5.531.75,
-0.13,0.93,0.29,-2.66,6.301.68,
-0.12,0.94,0.28,-3.92,7.842.17,
-0.11,0.93,0.27,-4.55,8.892.10,
-0.1,0.93,0.27,-4.2,7.701.89,
-0.1,0.93,0.26,-3.92,5.881.75,
-0.1,0.93,0.26,-2.87,3.922.24,
-0.1,0.93,0.27,-1.61,2.522.38,
-0.1,0.92,0.29,-1.4,2.942.80,
-0.11,0.93,0.3,-1.75,3.783.15,
-0.11,0.94,0.31,-2.24,4.412.31,
-0.12,0.94,0.32,-2.52,5.321.82,
-0.13,0.94,0.3,-2.94,7.001.40,
-0.13,0.95,0.29,-4.27,5.740.84,
-0.12,0.96,0.28,-5.6,3.920.14,
-0.11,0.95,0.28,-6.3,1.61-0.21,
-0.1,0.92,0.29,-4.69,-1.12-0.42,
-0.11,0.92,0.3,-3.71,-2.660.49,
-0.11,0.9,0.3,-3.78,-3.361.96,
-0.12,0.89,0.31,-3.57,-5.532.38,
-0.11,0.9,0.34,-4.06,-1.822.73,
-0.1,0.91,0.31,-2.31,-0.072.80,
-0.1,0.93,0.3,-1.47,-0.352.31,
-0.11,0.92,0.3,-0.84,-0.772.03,
-0.11,0.92,0.3,-0.49,-0.841.89,
-0.11,0.92,0.29,-0.28,-0.912.24,
-0.11,0.92,0.28,-0.21,-2.381.96,
-0.11,0.92,0.3,-1.12,-3.502.24,
-0.09,0.9,0.31,-1.26,-4.272.80,
-0.07,0.91,0.31,-0.07,-4.972.52,
-0.09,0.9,0.31,1.96,-5.952.80,
-0.1,0.92,0.33,2.17,-5.322.10,
-0.1,0.92,0.33,2.38,-2.871.68,
-0.11,0.93,0.35,2.94,-0.911.40,
-0.11,0.92,0.35,3.29,0.561.61,
-0.11,0.91,0.38,2.87,2.872.59,
-0.1,0.9,0.37,3.64,5.882.66,
-0.11,0.92,0.37,3.71,9.242.66,
-0.1,0.93,0.37,2.94,14.073.29,
-0.11,0.95,0.34,3.15,15.262.80,
-0.09,0.94,0.34,3.85,16.032.94,
-0.1,0.93,0.32,5.67,16.802.52,
-0.12,0.94,0.29,4.97,15.261.68,
-0.11,0.92,0.26,5.32,12.391.61,
-0.1,0.95,0.27,3.36,7.211.68,
-0.12,0.97,0.27,-1.26,2.520.14,
-0.1,0.95,0.28,-1.96,1.12-0.63,
-0.09,0.96,0.28,-1.68,1.33-2.17,
-0.09,0.99,0.27,0.21,2.24-2.80,
-0.08,1,0.25,-5.04,-0.28-5.32,
-0.07,0.99,0.26,-2.66,-1.26-7.07,
-0.07,0.97,0.25,-7.49,-2.87-10.22,
-0.08,0.87,0.22,-3.99,-5.32-6.86,
-0.11,1.07,0.26,-2.66,-7.49-11.06,
-0.09,0.89,0.23,-5.95,-8.96-11.34,
-0.14,0.86,0.22,-1.89,-10.92-7.42,
-0.07,0.94,0.25,13.16,-8.19-1.82,
-0.12,1,0.21,-8.61,-3.08-5.32,
-0.12,0.8,0.2,-6.09,-5.392.38,
-0.07,0.84,0.28,0.07,0.357.63,
-0.12,0.82,0.18,-7.35,-7.4915.12,
-0.14,0.85,0.17,-1.26,-15.8218.55,
-0.18,1.03,0.23,-3.43,-15.8212.46,
-0.19,1.03,0.29,-9.73,-11.482.03,
-0.11,0.96,0.28,-4.13,-3.992.24,
-0.16,0.96,0.27,-3.85,-6.724.41,
-0.15,0.98,0.29,-3.71,-6.934.97,
-0.12,1.07,0.32,-11.13,-3.92-1.68,
-0.11,1,0.3,-20.09,-4.55-4.13,
-0.12,0.95,0.31,-21.07,-3.78-5.18,
-0.13,0.94,0.32,-20.79,-1.26-5.95,
-0.15,0.95,0.33,-21.63,1.12-6.65,
-0.17,0.95,0.33,-22.89,2.59-7.56,
-0.19,0.94,0.32,-22.19,3.29-8.54,
-0.2,0.93,0.29,-23.17,1.12-9.17,
-0.2,0.92,0.31,-24.64,-2.10-9.66,
-0.21,0.9,0.31,-25.97,-6.51-9.17,
-0.24,0.89,0.31,-25.27,-9.45-9.17,
-0.26,0.9,0.34,-25.41,-10.78-8.89,
-0.26,0.89,0.36,-27.37,-11.76-9.17,
-0.24,0.89,0.38,-28.84,-12.04-9.87,
-0.21,0.88,0.37,-29.4,-11.41-10.57,
-0.18,0.75,0.36,-29.96,-12.32-11.20,
-0.14,0.87,0.36,-30.24,-13.02-12.60,
-0.1,0.87,0.38,-31.92,-11.76-13.16,
-0.07,0.87,0.4,-34.02,-10.50-13.37,
-0.07,0.86,0.41,-35.49,-7.28-12.25,
-0.07,0.87,0.42,-36.19,-1.82-11.06,
-0.08,0.86,0.46,-35.91,3.64-9.52,
-0.1,0.85,0.49,-35.14,6.09-8.12,
-0.12,0.86,0.52,-35.35,6.16-8.47,
-0.16,0.86,0.53,-32.2,10.71-9.66,
-0.17,0.86,0.45,-26.11,16.94-10.22,
-0.13,0.86,0.39,-24.08,19.67-10.57,
-0.07,0.86,0.39,-25.2,17.92-10.36,
-0.02,0.86,0.37,-27.3,14.28-9.31,
0.01,0.86,0.37,-28,10.85-7.28,
0.04,0.87,0.42,-28.49,9.45-4.13,
0.03,0.87,0.49,-27.72,12.46-0.21,
0.01,0.88,0.5,-26.39,17.992.66,
-0.02,0.88,0.55,-26.95,21.003.92,
-0.05,0.87,0.56,-28,24.996.16,
-0.1,0.84,0.51,-24.22,31.017.35,
-0.12,0.83,0.48,-20.09,33.537.77,
-0.12,0.85,0.46,-17.15,31.367.07,
-0.12,0.85,0.43,-15.33,26.746.93,
-0.13,0.85,0.42,-11.13,21.216.72,
-0.13,0.86,0.43,-8.68,15.686.65,
-0.11,0.85,0.45,-8.05,10.577.00,
-0.1,0.84,0.48,-8.26,6.727.00,
-0.08,0.83,0.52,-8.47,4.345.88,
-0.07,0.83,0.57,-10.01,0.563.99,
-0.08,0.83,0.6,-15.26,-4.483.29,
-0.13,0.81,0.74,-17.22,-8.400.70,
-0.16,0.8,0.65,-17.08,-8.26-2.87,
-0.17,0.78,0.64,-15.96,-7.35-6.72,
-0.18,0.77,0.6,-15.26,-7.14-9.66,
-0.2,0.76,0.58,-14.21,-9.24-12.53,
-0.19,0.76,0.54,-12.53,-11.90-15.68,
-0.19,0.75,0.51,-8.75,-15.33-18.55,
-0.17,0.78,0.48,-6.79,-17.78-20.58,
-0.15,0.79,0.49,-8.33,-19.67-22.19,
-0.11,0.83,0.51,-14.21,-22.75-24.08,
-0.08,0.83,0.51,-19.53,-25.41-24.85,
-0.05,0.83,0.5,-22.54,-26.46-25.55,
-0.03,0.83,0.48,-23.59,-26.74-26.11,
-0.03,0.8,0.49,-24.29,-28.98-27.16,
-0.01,0.79,0.53,-27.86,-34.02-28.84,
0,0.74,0.56,-31.99,-36.61-28.98,
-0.03,0.71,0.58,-35.84,-37.73-28.91,
-0.06,0.7,0.64,-40.39,-40.32-28.70,
-0.12,0.73,0.65,-48.44,-42.91-30.87,
-0.16,0.7,0.65,-52.92,-39.83-31.36,
-0.21,0.71,0.6,-54.67,-37.87-33.04,
-0.21,0.73,0.55,-55.72,-39.06-53.48,
-0.2,0.74,0.51,-56.7,-42.49-39.41,
-0.18,0.72,0.47,-56,-44.94-41.37,
-0.19,0.72,0.43,-51.45,-45.92-44.73,
-0.17,0.74,0.46,-50.33,-50.19-49.42,
-0.13,0.71,0.52,-52.01,-54.60-52.85,
-0.11,0.66,0.56,-52.92,-53.41-53.76,
-0.11,0.51,0.63,-55.51,-50.75-53.48,
-0.13,0.59,0.76,-59.43,-43.54-53.34,
-0.12,0.6,0.78,-61.32,-26.39-55.09,
-0.06,0.65,0.65,-67.62,-20.37-58.03,
-0.02,0.61,0.69,-73.78,-14.42-57.82,
-0.05,0.59,0.63,-75.74,-9.59-54.60,
-0.07,0.62,0.47,-81.34,-18.55-49.63,
-0.1,0.65,0.4,-91.28,-33.60-42.84,
-0.15,0.6,0.41,-97.93,-41.37-39.55,
-0.21,0.54,0.54,-98.63,-40.74-35.70,
-0.19,0.57,0.68,-97.37,-28.84-33.04,
-0.23,0.68,0.71,-103.95,-20.02-29.47,
-0.18,0.67,0.56,-107.03,-11.48-28.00,
-0.12,0.64,0.45,-103.32,-2.03-25.69,
-0.08,0.59,0.44,-99.05,6.37-23.10,
-0.03,0.52,0.63,-97.86,15.89-17.01,
-0.1,0.44,0.87,-105.21,23.17-8.26,
-0.33,0.43,0.94,-112.7,25.692.03,
-0.53,0.46,0.87,-116.27,25.207.63,
-0.61,0.42,0.87,-113.96,23.6611.62,
-0.65,0.28,0.81,-98.35,12.8820.58,
-0.75,0.38,0.92,-91.56,-5.4621.77,
-0.52,0.25,0.98,-93.38,-5.3919.39,
-0.23,0.16,1.04,-83.58,14.0016.31,
-0.11,0.31,1.08,-80.85,29.1215.12,
-0.11,0.45,1.1,-81.9,34.6515.75,
-0.25,0.56,1.2,-83.93,33.889.24,
-0.37,0.3,1.27,-73.08,35.706.44,
-0.35,0.3,1.34,-58.03,41.864.55,
-0.43,0.28,1.28,-47.25,42.772.52,
-0.53,0.3,1.23,-36.61,42.351.47,
-0.48,0.33,1.25,-31.85,44.942.45,
-0.43,0.3,1.21,-24.78,47.461.61,
-0.47,0.29,1.11,-15.26,46.27-0.91,
-0.5,0.34,1.03,-7,41.37-2.31,
-0.49,0.35,0.99,-1.05,33.60-4.20,
-0.46,0.33,0.97,4.41,28.49-6.23,
-0.45,0.3,0.96,5.46,25.90-6.72,
-0.43,0.26,0.92,6.16,26.11-7.00,
-0.4,0.24,0.89,5.39,29.26-6.79,
-0.37,0.25,0.87,3.08,32.34-6.37,
-0.37,0.27,0.83,-0.14,34.23-6.02,
-0.36,0.28,0.82,-2.03,34.58-5.88,
-0.37,0.29,0.8,-2.87,33.11-6.09,
-0.39,0.31,0.8,-2.94,31.36-7.14,
-0.42,0.32,0.81,-3.36,29.61-9.31,
-0.44,0.34,0.82,-4.76,28.00-12.11,
-0.46,0.35,0.81,-6.09,26.67-12.95,
-0.5,0.37,0.8,-8.61,24.43-15.12,
-0.51,0.35,0.79,-10.99,21.56-16.87,
-0.52,0.32,0.79,-11.76,17.64-17.29,
-0.52,0.31,0.8,-11.69,14.00-16.45,
-0.52,0.31,0.81,-10.99,10.57-14.70,
-0.52,0.3,0.82,-10.01,7.98-12.46,
-0.52,0.31,0.81,-9.52,4.34-9.87,
-0.51,0.36,0.81,-9.45,1.54-7.07,
-0.47,0.38,0.84,-9.03,0.49-4.41,
-0.42,0.39,0.87,-8.19,-1.19-2.38,
-0.38,0.38,0.89,-7.28,-2.80-1.47,
-0.37,0.37,0.89,-6.58,-5.11-1.68,
-0.36,0.35,0.9,-6.93,-6.65-2.31,
-0.37,0.34,0.91,-6.44,-8.68-2.66,
-0.38,0.33,0.92,-7.21,-9.66-2.45,
-0.37,0.31,0.93,-8.47,-8.75-3.01,
-0.35,0.29,0.95,-8.82,-6.44-3.08,
-0.33,0.28,0.95,-8.26,-3.57-2.87,
-0.32,0.25,0.93,-5.95,-1.19-3.92,
-0.34,0.24,0.91,-4.34,-0.63-4.76,
-0.38,0.24,0.89,-4.27,-1.05-5.60,
-0.41,0.23,0.87,-3.85,-1.05-6.65,
-0.41,0.22,0.87,-3.08,-0.77-7.56,
-0.42,0.21,0.89,-2.1,0.70-8.26,
-0.41,0.19,0.92,-0.91,3.85-9.17,
-0.39,0.2,0.98,0.98,8.82-9.45,
-0.37,0.23,1,2.66,15.82-10.22,
-0.36,0.25,0.99,3.85,18.83-10.92,
-0.37,0.27,0.96,5.18,16.73-11.69,
-0.38,0.28,0.88,2.24,12.74-10.57,
-0.43,0.26,0.83,0,9.03-9.80,
-0.48,0.25,0.78,1.26,7.63-10.99,
-0.49,0.26,0.8,4.62,9.87-12.39,
-0.51,0.28,0.85,7.35,15.19-14.35,
-0.49,0.29,0.87,11.83,19.32-16.66,
-0.45,0.32,0.85,10.92,16.87-17.99,
-0.44,0.34,0.81,4.13,9.03-17.50,
-0.45,0.31,0.84,-0.56,5.46-14.49,
-0.47,0.31,0.86,-2.8,6.37-12.95,
-0.47,0.28,0.87,-3.08,7.21-10.57,
-0.47,0.27,0.85,-3.36,6.51-9.10,
-0.44,0.27,0.84,-3.15,5.18-7.56,
-0.43,0.26,0.83,-4.97,1.82-5.53,
-0.43,0.27,0.86,-7.84,-1.75-2.45,
-0.41,0.29,0.92,-10.22,-2.87-1.26,
-0.4,0.31,0.89,-14.56,-4.830.63,
-0.37,0.29,0.88,-17.92,-6.022.17,
-0.36,0.27,0.85,-18.69,-7.913.71,
-0.36,0.23,0.85,-18.41,-9.175.32,
-0.37,0.21,0.85,-17.36,-9.176.58,
-0.38,0.21,0.84,-16.24,-9.317.70,
-0.39,0.19,0.85,-15.12,-8.828.40,
-0.4,0.18,0.87,-14.14,-7.008.82,
-0.42,0.19,0.89,-13.51,-6.099.03,
-0.44,0.18,0.89,-14.63,-5.119.66,
-0.45,0.18,0.86,-16.1,-3.719.80,
-0.44,0.16,0.81,-14.98,-5.119.10,
-0.44,0.16,0.83,-12.32,-5.398.54,
-0.46,0.17,0.85,-10.43,-2.387.84,
-0.47,0.17,0.85,-9.31,-1.337.28,
-0.47,0.16,0.86,-7.63,-1.617.35,
-0.44,0.14,0.88,-4.83,-0.146.72,
-0.42,0.15,0.89,-3.5,1.616.16,
-0.41,0.13,0.9,-1.75,2.106.37,
-0.41,0.14,0.84,-0.49,-0.567.00,
-0.45,0.13,0.87,2.1,-1.128.40,
-0.46,0.15,0.89,3.92,2.877.91,
-0.46,0.12,0.86,4.97,3.297.42,
-0.46,0.09,0.85,4.83,1.408.47,
-0.48,0.06,0.87,5.53,0.569.24,
-0.49,0.03,0.89,8.82,2.459.80,
-0.48,0.03,0.9,11.34,5.119.66,
-0.46,0.04,0.88,13.16,5.748.89,
-0.45,0.06,0.88,13.72,4.698.96,
-0.45,0.1,0.88,13.79,6.029.73,
-0.42,0.12,0.89,14.28,8.3310.29,
-0.41,0.13,0.89,14.42,9.4511.62,
-0.39,0.14,0.89,13.23,11.0612.81,
-0.43,0.16,0.85,9.38,9.3112.67,
-0.45,0.15,0.8,2.73,5.2514.00,
-0.48,0.12,0.81,1.19,6.7915.54,
-0.55,0.19,0.88,-3.43,13.7913.58,
-0.55,0.23,0.9,-12.32,17.5710.78,
-0.52,0.27,0.88,-21.28,15.2610.50,
-0.49,0.27,0.86,-27.09,10.789.87,
-0.48,0.25,0.87,-27.37,3.298.26,
-0.52,0.19,0.92,-26.04,-5.114.69,
-0.53,0.1,0.94,-23.52,-5.952.52,
-0.55,0.08,0.92,-18.41,-4.340.21,
-0.59,0.1,0.88,-15.19,-1.68-1.75,
-0.57,0.13,0.87,-11.69,1.05-3.50,
-0.53,0.18,0.85,-6.72,5.53-4.76,
-0.48,0.2,0.85,17.78,5.95-6.16,
-0.49,0.2,0.85,2.59,3.64-6.30,
-0.53,0.2,0.85,2.31,-0.63-4.97,
-0.56,0.26,0.9,0.21,-3.71-3.36,
-0.57,0.32,0.94,-2.52,-4.41-3.99,
-0.51,0.3,0.95,-3.43,-2.24-5.95,
-0.43,0.27,0.94,-4.13,0.07-7.49,
-0.38,0.22,0.93,-4.62,2.10-8.19,
-0.37,0.2,0.89,-5.74,1.89-7.14,
-0.41,0.18,0.84,-7,-0.84-6.23,
-0.42,0.17,0.83,-7.77,-1.54-5.25,
-0.48,0.14,0.82,-6.93,-4.20-4.48,
-0.5,0.15,0.82,-9.1,-7.28-4.55,
-0.46,0.16,0.84,-10.01,-7.21-5.04,
-0.45,0.13,0.88,-7.21,-5.88-6.16,
-0.44,0.11,0.9,-6.23,-3.43-6.44,
-0.49,0.12,0.9,-6.09,-3.22-6.30,
-0.49,0.17,0.88,-5.32,-2.03-6.37,
-0.43,0.21,0.92,-3.92,1.05-6.44,
-0.39,0.21,0.94,0.56,3.71-6.79,
-0.38,0.18,0.92,3.36,6.16-7.07,
-0.4,0.14,0.9,4.76,5.18-6.02,
-0.41,0.18,0.86,2.31,2.94-4.69,
-0.41,0.2,0.84,0.7,1.12-3.08,
-0.41,0.19,0.84,-0.35,-1.26-1.82,
-0.41,0.17,0.83,0.35,-4.06-0.07,
-0.42,0.18,0.84,1.33,-5.951.75,
-0.39,0.19,0.85,4.62,-4.622.10,
-0.33,0.22,0.89,8.82,-0.911.54,
-0.34,0.22,0.92,11.83,0.841.47,
-0.39,0.23,0.92,10.78,1.752.80,
-0.49,0.26,0.93,8.89,-2.592.80,
-0.48,0.29,0.93,7.14,-0.911.61,
-0.42,0.3,0.93,6.86,1.19-0.91,
-0.42,0.24,0.88,7.14,0.21-1.47,
-0.43,0.23,0.86,5.32,-2.170.00,
-0.4,0.28,0.87,6.58,1.054.06,
-0.43,0.3,0.89,8.68,1.264.62,
-0.41,0.24,0.85,10.08,-1.614.13,
-0.37,0.21,0.82,9.45,-1.752.52,
-0.36,0.22,0.78,8.54,-1.613.85,
-0.53,0.32,0.8,8.68,-10.294.34,
-0.42,0.3,0.84,12.32,-5.672.87,
-0.46,0.24,0.81,15.54,-8.050.91,
-0.45,0.23,0.76,12.04,-10.361.05,
-0.44,0.27,0.8,9.8,-14.631.96,
-0.45,0.26,0.84,8.05,-17.573.50,
-0.42,0.27,0.88,6.44,-18.274.34,
-0.38,0.27,0.91,4.13,-14.774.41,
-0.34,0.28,0.92,2.66,-8.474.06,
-0.48,0.24,0.89,2.87,-13.305.53,
-0.47,0.29,0.93,2.31,-13.304.76,
-0.42,0.3,0.96,4.83,-4.834.55,
-0.4,0.28,0.97,10.01,2.174.41,
-0.42,0.25,1.01,14.28,4.623.78,
-0.41,0.27,1.01,14.28,7.700.56,
-0.39,0.27,0.94,11.06,8.54-1.75,
-0.35,0.28,0.88,6.93,6.58-2.45,
-0.33,0.26,0.86,5.46,4.76-3.08,
-0.34,0.23,0.86,7.49,6.37-4.13,
-0.34,0.23,0.84,7.91,10.43-5.88,
-0.37,0.24,0.81,6.3,9.73-8.26,
-0.41,0.25,0.8,4.34,5.53-10.64,
-0.42,0.27,0.82,3.57,2.31-11.69,
-0.39,0.27,0.84,4.41,1.96-13.30,
-0.36,0.25,0.88,3.85,3.71-13.65,
-0.35,0.23,0.89,6.44,5.46-13.37,
-0.39,0.21,0.89,7.28,6.86-12.32,
-0.35,0.23,0.88,6.23,11.76-11.69,
-0.36,0.22,0.87,5.6,13.72-9.66,
-0.42,0.21,0.87,5.88,13.72-7.77,
-0.42,0.24,0.87,6.93,17.01-6.79,
-0.44,0.25,0.87,8.68,18.83-6.23,
-0.42,0.27,0.88,9.52,19.74-5.67,
-0.45,0.27,0.88,9.87,13.93-5.46,
-0.44,0.28,0.87,9.03,8.89-5.81,
-0.37,0.29,0.84,6.79,8.54-4.97,
-0.44,0.31,0.83,6.37,2.94-4.06,
-0.44,0.32,0.83,7.49,4.97-3.57,
-0.45,0.33,0.84,8.75,8.26-3.22,
-0.44,0.33,0.82,7.63,8.82-0.84,
-0.44,0.35,0.8,6.16,8.191.26,
-0.45,0.35,0.76,3.36,6.094.55,
-0.42,0.33,0.78,0.07,5.608.96,
-0.45,0.36,0.71,1.75,5.4612.39,
-0.5,0.33,0.77,-0.28,0.4216.45,
-0.48,0.33,0.8,-0.35,-1.4716.94,
-0.52,0.29,0.81,0.49,-6.8616.24,
-0.53,0.25,0.87,3.43,-6.6515.68,
-0.63,0.28,0.9,6.02,-8.6121.07,
-0.68,0.36,0.88,3.08,-10.9923.59,
-0.57,0.36,0.83,0.14,-7.8421.91,
-0.42,0.3,0.8,-1.82,-6.0919.81,
-0.34,0.3,0.84,-3.64,-7.9817.99,
-0.39,0.29,0.9,-5.74,-8.7516.38,
-0.44,0.3,0.9,-7.56,-5.3913.86,
-0.43,0.31,0.88,-7.14,-1.5412.95,
-0.45,0.3,0.84,-5.81,-2.3811.97,
-0.47,0.28,0.82,-4.27,-4.7610.92,
-0.49,0.25,0.8,-1.82,-6.729.87,
-0.49,0.25,0.82,0,-7.428.40,
-0.46,0.26,0.84,1.75,-6.447.21,
-0.43,0.26,0.86,3.85,-5.116.37,
-0.43,0.26,0.9,5.25,-3.715.95,
-0.45,0.26,0.94,6.79,-0.634.90,
-0.43,0.29,0.96,8.61,3.223.29,
-0.41,0.31,0.94,8.19,6.022.10,
-0.41,0.3,0.89,4.9,6.791.33,
-0.42,0.27,0.87,0.49,7.771.05,
-0.46,0.22,0.86,-0.98,8.121.96,
-0.52,0.22,0.82,-1.26,6.442.66,
-0.55,0.26,0.78,0,2.312.59,
-0.56,0.28,0.78,1.89,-2.171.89,
-0.53,0.29,0.8,2.17,-5.951.12,
-0.5,0.27,0.82,0.98,-8.610.63,
-0.47,0.24,0.83,0.42,-9.030.63,
-0.43,0.25,0.84,0.91,-6.790.84,
-0.39,0.27,0.85,1.61,-5.390.98,
-0.38,0.27,0.86,1.89,-5.530.98,
-0.39,0.25,0.87,1.19,-6.021.05,
-0.4,0.23,0.86,0.49,-5.740.84,
-0.41,0.22,0.85,1.19,-5.670.49,
-0.42,0.23,0.84,2.73,-6.020.07,
-0.43,0.25,0.85,4.48,-6.72-0.42,
-0.45,0.26,0.85,6.09,-7.00-0.91,
-0.47,0.25,0.84,6.79,-7.91-0.91,
-0.48,0.26,0.83,5.6,-8.05-0.91,
-0.48,0.26,0.84,4.55,-8.40-1.05,
-0.49,0.27,0.85,2.59,-9.59-1.12,
-0.49,0.28,0.86,-0.14,-10.99-1.33,
-0.49,0.27,0.86,-2.24,-11.97-1.75,
-0.46,0.26,0.87,-3.01,-11.62-2.73,
-0.44,0.25,0.88,-2.38,-10.92-2.73,
-0.42,0.24,0.89,-1.4,-10.22-1.96,
-0.41,0.23,0.9,-0.7,-9.17-0.98,
-0.38,0.22,0.92,1.26,-7.28-0.91,
-0.36,0.22,0.93,3.99,-3.85-0.56,
-0.35,0.23,0.92,5.25,-1.12-0.49,
-0.36,0.23,0.9,5.53,1.26-0.49,
-0.39,0.24,0.88,4.76,2.31-0.21,
-0.42,0.25,0.88,3.99,2.38-0.35,
-0.45,0.25,0.88,2.66,1.75-0.49,
-0.48,0.26,0.87,1.47,0.98-0.35,
-0.49,0.26,0.86,1.4,0.84-0.63,
-0.48,0.27,0.84,1.82,-0.07-1.68,
-0.47,0.29,0.84,1.89,-1.68-2.52,
-0.45,0.31,0.85,2.03,-2.73-3.36,
-0.43,0.3,0.87,1.96,-3.36-4.06,
-0.42,0.29,0.89,2.24,-3.64-4.06,
-0.41,0.28,0.89,2.03,-3.36-4.13,
-0.4,0.27,0.88,1.82,-3.15-3.99,
-0.4,0.26,0.87,-0.07,-3.36-3.92,
-0.4,0.25,0.86,-1.61,-3.29-3.50,
-0.4,0.25,0.86,-2.45,-2.94-2.87,
-0.41,0.26,0.86,-2.8,-2.03-2.17,
-0.42,0.26,0.85,-3.01,-1.19-1.54,
-0.43,0.27,0.85,-3.01,-1.33-1.19,
-0.44,0.27,0.86,-2.87,-2.17-0.35,
-0.44,0.28,0.87,-2.73,-2.73-0.42,
-0.45,0.27,0.87,-2.38,-2.94-0.63,
-0.45,0.27,0.86,-1.89,-3.22-1.19,
-0.45,0.27,0.86,-1.33,-3.85-1.82,
-0.44,0.26,0.87,-0.63,-4.48-2.38,
-0.43,0.26,0.87,-0.42,-4.62-2.73,
-0.42,0.25,0.87,-0.35,-4.90-3.22,
-0.42,0.24,0.88,0.42,-5.04-4.06,
-0.41,0.24,0.88,0.7,-4.97-4.69,
-0.41,0.24,0.88,0.77,-4.62-5.18,
-0.41,0.24,0.87,0.56,-4.48-5.32,
-0.41,0.24,0.88,0.56,-4.13-5.04,
-0.41,0.24,0.87,0.56,-3.85-5.11,
-0.41,0.24,0.87,0.7,-3.43-5.11,
-0.41,0.24,0.87,1.05,-3.29-4.83,
-0.42,0.25,0.87,1.19,-3.78-4.55,
-0.43,0.25,0.87,1.05,-4.27-4.13,
-0.43,0.24,0.87,0.63,-4.27-3.71,
-0.43,0.25,0.87,0.42,-4.20-3.22,
-0.43,0.24,0.87,0.28,-3.92-2.52,
-0.42,0.25,0.87,0.21,-3.50-2.03,
-0.41,0.25,0.88,0.63,-3.36-1.82,
-0.41,0.25,0.88,0.77,-3.71-1.89,
-0.41,0.25,0.88,0.63,-4.20-1.47,
-0.41,0.25,0.89,0.56,-4.34-1.54,
-0.4,0.25,0.89,0.42,-4.06-1.33,
-0.4,0.25,0.88,0.14,-4.06-0.98,
-0.4,0.25,0.89,-0.28,-4.34-0.49,
-0.4,0.25,0.89,-1.05,-4.62-0.28,
-0.4,0.26,0.9,-2.03,-4.830.14,
-0.39,0.25,0.9,-2.94,-4.480.35,
-0.39,0.25,0.9,-3.78,-3.780.21,
-0.39,0.24,0.9,-4.48,-3.150.49,
-0.39,0.24,0.89,-4.9,-2.870.56,
-0.39,0.24,0.89,-5.11,-2.590.98,
-0.39,0.24,0.88,-4.97,-2.520.98,
-0.39,0.24,0.88,-4.55,-2.591.47,
-0.39,0.23,0.88,-4.2,-2.451.26,
-0.39,0.23,0.88,-3.99,-1.961.47,
-0.39,0.23,0.88,-4.2,-1.821.89,
-0.39,0.23,0.88,-4.27,-1.752.17,
-0.39,0.24,0.89,-4.34,-1.752.59,
-0.39,0.24,0.89,-4.76,-1.683.22,
-0.4,0.24,0.9,-5.18,-1.683.43,
-0.4,0.24,0.89,-5.53,-1.683.78,
-0.41,0.24,0.89,-6.37,-1.963.99,
-0.41,0.24,0.89,-6.86,-2.033.99,
-0.4,0.23,0.88,-7.28,-1.964.06,
-0.4,0.22,0.89,-7.28,-2.104.13,
-0.4,0.21,0.89,-7.07,-1.964.48,
-0.41,0.21,0.89,-7.07,-1.615.25,
-0.41,0.21,0.89,-7.07,-1.545.81,
-0.41,0.21,0.89,-7.07,-1.335.88,
-0.42,0.21,0.89,-6.58,-1.336.02,
-0.42,0.22,0.89,-5.88,-1.406.09,
-0.42,0.22,0.89,-5.53,-1.196.02,
-0.41,0.21,0.89,-4.76,-1.056.23,
-0.4,0.22,0.89,-3.92,-0.705.95,
-0.4,0.22,0.89,-2.87,-0.845.53,
-0.4,0.22,0.89,-2.1,-0.985.11,
-0.41,0.22,0.89,-1.4,-1.474.90,
-0.41,0.22,0.89,-1.33,-1.964.27,
-0.41,0.22,0.89,-0.98,-1.824.55,
-0.4,0.23,0.89,-0.56,-1.264.34,
-0.4,0.23,0.88,-0.14,-0.703.64,
-0.39,0.22,0.88,0.35,-0.353.57,
-0.39,0.23,0.89,0.56,-0.283.15,
-0.38,0.23,0.89,0.49,0.072.94,
-0.38,0.23,0.9,0.56,0.212.73,
-0.39,0.23,0.9,0.56,0.282.52,
-0.39,0.22,0.9,0.14,0.422.59,
-0.4,0.22,0.9,-0.14,0.492.80,
-0.39,0.22,0.89,-0.28,0.842.66,
-0.39,0.22,0.89,-0.7,1.192.87,
-0.4,0.22,0.89,-0.77,1.193.22,
-0.4,0.21,0.89,-0.49,1.193.36,
-0.4,0.22,0.89,-0.63,1.263.29,
-0.4,0.22,0.9,-0.84,1.473.50,
-0.4,0.21,0.89,-0.7,1.683.57,
-0.4,0.21,0.9,-0.35,1.683.36,
-0.4,0.21,0.89,-0.07,1.683.78,
-0.4,0.21,0.89,0.35,1.753.92,
-0.4,0.22,0.89,0.49,1.684.06,
-0.4,0.22,0.89,0.49,1.614.27,
-0.4,0.22,0.89,0.49,1.894.62,
-0.4,0.22,0.88,0.63,1.754.62,
-0.41,0.22,0.88,0.91,1.614.90,
-0.41,0.22,0.89,1.05,1.195.46,
-0.41,0.23,0.89,1.05,0.985.25,
-0.41,0.23,0.89,1.05,0.705.25,
-0.41,0.23,0.89,0.84,0.635.46,
-0.41,0.22,0.89,0.77,0.635.39,
-0.42,0.22,0.89,0.91,0.705.39,
-0.41,0.23,0.89,1.12,0.565.46,
-0.41,0.23,0.89,1.26,0.565.74,
-0.41,0.23,0.89,1.47,0.355.39,
-0.41,0.23,0.89,1.19,-0.215.88,
-0.41,0.23,0.9,0.77,-0.495.88,
-0.4,0.23,0.9,0,-0.496.02,
-0.4,0.23,0.89,-0.49,-0.496.30,
-0.4,0.23,0.89,-0.98,-0.356.37,
-0.39,0.22,0.89,-0.98,-0.356.16,
-0.39,0.22,0.9,-0.56,-0.145.88,
-0.4,0.21,0.9,0,-0.146.09,
-0.4,0.21,0.89,0.35,0.005.81,
-0.4,0.22,0.88,0.21,0.426.02,
-0.4,0.22,0.87,0.35,0.705.88,
-0.39,0.22,0.87,0.7,0.285.74,
-0.4,0.23,0.88,0.77,0.075.74,
-0.4,0.23,0.89,0.91,-0.495.46,
-0.41,0.23,0.89,0.98,-0.635.46,
-0.42,0.23,0.89,0.84,-0.425.53,
-0.42,0.24,0.88,0.7,-0.355.18,
-0.41,0.24,0.88,0.77,-0.495.18,
-0.41,0.24,0.89,0.84,-0.985.39,
-0.4,0.24,0.89,0.91,-1.264.83,
-0.4,0.25,0.89,0.91,-1.544.55,
-0.4,0.25,0.89,0.84,-1.754.48,
-0.4,0.24,0.89,0.77,-1.823.92,
-0.39,0.24,0.89,0.49,-1.543.64,
-0.39,0.24,0.89,0.42,-1.683.15,
-0.39,0.24,0.89,0.14,-1.402.94,
-0.4,0.23,0.89,-0.07,-1.402.87,
-0.4,0.23,0.89,0,-1.052.38,
-0.41,0.23,0.89,0.28,-0.771.96,
-0.41,0.23,0.89,0.63,-0.561.75,
-0.42,0.23,0.89,1.05,-0.351.47,
-0.41,0.23,0.89,1.4,-0.351.12,
-0.41,0.22,0.89,1.96,-0.630.84,
-0.42,0.22,0.89,2.45,-0.910.91,
-0.41,0.23,0.89,2.52,-1.190.91,
-0.41,0.23,0.89,2.24,-1.260.84,
-0.4,0.23,0.88,1.82,-1.540.84,
-0.4,0.23,0.88,1.54,-1.821.05,
-0.39,0.23,0.89,1.19,-2.031.12,
-0.39,0.23,0.89,0.77,-2.171.61,
-0.39,0.23,0.9,0.42,-2.101.40,
-0.39,0.23,0.9,-0.21,-2.171.26,
-0.38,0.23,0.9,-0.42,-1.821.12,
-0.38,0.23,0.89,-0.35,-1.400.91,
-0.38,0.23,0.89,0.14,-1.400.28,
-0.38,0.23,0.89,0.56,-1.050.77,
-0.38,0.23,0.89,0.84,-0.490.63,
-0.38,0.23,0.89,1.12,-0.280.70,
-0.38,0.24,0.89,1.47,-0.140.70,
-0.38,0.24,0.89,1.54,-0.070.91,
-0.38,0.24,0.89,1.68,0.140.70,
-0.38,0.24,0.89,1.68,-0.141.12,
-0.39,0.24,0.89,1.47,-0.281.19,
-0.39,0.24,0.9,1.33,-0.141.19,
-0.39,0.24,0.9,0.91,0.001.33,
-0.39,0.24,0.9,0.84,0.491.40,
-0.39,0.24,0.9,0.7,0.281.26,
-0.39,0.24,0.9,0.42,0.421.33,
-0.39,0.23,0.9,0.21,0.210.91,
-0.4,0.23,0.9,0.28,0.211.33,
-0.4,0.23,0.89,0.07,0.281.33,
-0.4,0.23,0.88,-0.28,0.421.89,
-0.4,0.23,0.88,-0.14,0.211.82,
-0.4,0.22,0.88,0.07,-0.071.68,
-0.4,0.22,0.89,0.28,-0.281.61,
-0.4,0.22,0.89,0.42,-0.281.68,
-0.4,0.23,0.89,0.63,-0.351.96,
-0.4,0.23,0.89,0.7,-0.422.17,
-0.4,0.23,0.89,0.77,-0.212.03,
-0.4,0.23,0.89,0.7,-0.421.96,
-0.39,0.23,0.89,0.84,-0.421.75,
-0.39,0.23,0.89,0.7,-0.351.54,
-0.39,0.23,0.89,0.77,-0.141.40,
-0.39,0.23,0.89,0.49,-0.141.68,
-0.39,0.23,0.89,0.21,-0.141.54,
-0.39,0.23,0.89,0,-0.141.47,
-0.39,0.23,0.89,0.07,0.071.54,
-0.39,0.23,0.89,0.35,0.070.91,
-0.39,0.23,0.89,0.56,0.070.98,
-0.39,0.23,0.89,0.77,-0.071.12,
-0.4,0.23,0.89,0.91,0.070.84,
-0.39,0.23,0.89,1.05,0.210.98,
-0.39,0.23,0.89,0.91,0.630.98,
-0.39,0.23,0.89,0.84,0.490.91,
-0.39,0.23,0.89,0.77,0.350.70,
-0.39,0.23,0.89,0.7,0.070.77,
-0.4,0.23,0.89,0.49,-0.070.91,
-0.4,0.23,0.89,0.42,-0.071.12,
-0.4,0.22,0.89,0.63,0.001.12,
-0.4,0.22,0.89,0.7,0.141.05,
-0.4,0.22,0.89,1.05,0.211.12,
-0.4,0.22,0.89,0.91,0.211.40,
-0.41,0.22,0.88,1.12,0.141.33,
-0.4,0.23,0.89,0.98,0.001.68,
-0.39,0.23,0.89,0.84,-0.281.68,
-0.39,0.23,0.89,0.42,-0.352.03,
-0.39,0.23,0.89,0.42,-0.491.82,
-0.39,0.23,0.89,0.49,-0.421.47,
-0.4,0.23,0.89,0.49,-0.351.19,
-0.4,0.23,0.89,0.35,-0.211.26,
-0.4,0.23,0.89,0.28,-0.281.12,
-0.4,0.23,0.89,0.35,-0.421.12,
-0.4,0.23,0.88,0.28,-0.490.77,
-0.4,0.23,0.88,0.49,-0.561.05,
-0.39,0.23,0.89,0.91,-0.630.91,
-0.39,0.24,0.89,1.19,-0.700.49,
-0.39,0.23,0.89,1.05,-0.700.77,
-0.39,0.23,0.9,1.12,-0.560.56,
-0.4,0.23,0.89,1.05,-0.280.42,
-0.4,0.23,0.89,1.05,-0.210.77,
-0.39,0.23,0.89,0.91,0.140.35,
-0.39,0.23,0.89,0.91,0.000.28,
-0.4,0.23,0.89,0.77,-0.070.63,
-0.4,0.23,0.89,0.77,-0.210.84,
-0.4,0.23,0.89,0.91,-0.280.84,
-0.4,0.23,0.89,0.91,-0.280.84,
-0.4,0.23,0.89,0.91,-0.210.98,
-0.4,0.22,0.89,1.19,-0.350.84,
-0.4,0.22,0.89,1.33,-0.280.70,
-0.4,0.22,0.89,0.7,-0.421.12,
-0.4,0.22,0.89,0.35,-0.421.61,
-0.39,0.23,0.89,0.42,-0.701.47,
-0.39,0.22,0.89,0.35,-0.911.54,
-0.39,0.23,0.9,0.42,-1.051.68,
-0.39,0.23,0.9,0.28,-0.981.89,
-0.39,0.23,0.89,0.21,-0.771.68,
-0.39,0.23,0.89,0.28,-0.631.61,
-0.39,0.23,0.89,0.28,-0.631.61,
-0.4,0.23,0.89,0.21,-0.841.68,
-0.4,0.23,0.89,0.49,-0.701.33,
-0.4,0.23,0.89,0.63,-0.491.19,
-0.4,0.23,0.89,0.77,-0.561.12,
-0.4,0.23,0.89,0.91,-0.560.77,
-0.4,0.23,0.89,0.91,-0.560.77,
-0.4,0.23,0.89,1.05,-0.420.56,
-0.39,0.23,0.89,1.4,-0.630.63,
-0.39,0.23,0.89,1.4,-0.490.84,
-0.39,0.23,0.89,1.12,-0.280.63,
-0.39,0.23,0.89,0.98,-0.490.35,
-0.39,0.23,0.89,0.7,-0.210.70,
-0.39,0.23,0.89,0.77,-0.280.56,
-0.39,0.23,0.89,0.84,-0.210.63,
-0.39,0.23,0.89,0.77,-0.070.56,
-0.39,0.23,0.89,0.63,0.140.77,
-0.39,0.23,0.89,0.84,0.000.49,
-0.4,0.22,0.89,0.91,-0.140.77,
-0.4,0.23,0.89,0.84,-0.210.63,
-0.4,0.23,0.88,0.77,-0.070.77,
-0.39,0.23,0.88,0.91,-0.350.84,
-0.39,0.23,0.89,0.84,-0.420.91,
-0.39,0.23,0.89,0.7,-0.350.98,
-0.39,0.23,0.89,0.63,-0.351.05,
-0.39,0.23,0.89,0.56,-0.491.12,
-0.39,0.23,0.89,0.35,-0.491.19,
-0.39,0.23,0.89,0.28,-0.421.05,
-0.39,0.23,0.89,0.07,-0.490.91,
-0.39,0.23,0.89,0.07,-0.420.91,
-0.39,0.23,0.89,0.14,-0.350.91,
-0.39,0.23,0.89,0.35,-0.140.70,
-0.4,0.22,0.89,0.63,-0.140.56,
-0.39,0.23,0.89,0.77,0.000.56,
-0.39,0.22,0.89,1.12,0.070.49,
-0.39,0.22,0.89,1.26,-0.070.42,
-0.39,0.22,0.89,1.26,0.140.63,
-0.4,0.23,0.89,1.19,0.000.49,
-0.4,0.22,0.89,1.05,0.070.77,
-0.4,0.23,0.89,0.98,-0.070.98,
-0.4,0.23,0.89,0.77,-0.071.33,
-0.4,0.22,0.89,0.84,-0.071.40,
-0.4,0.23,0.89,0.84,-0.281.33,
-0.4,0.22,0.89,0.84,-0.281.26,
-0.4,0.23,0.89,0.35,-0.421.54,
-0.4,0.23,0.89,0.28,-0.771.68,
-0.4,0.23,0.89,0.14,-0.981.61,
-0.39,0.23,0.9,0.21,-1.191.54,
-0.39,0.23,0.9,0.21,-1.051.96,
-0.39,0.23,0.9,0.21,-0.911.47,
-0.39,0.23,0.89,0.49,-0.981.47,
-0.4,0.23,0.89,0.49,-0.841.47,
-0.4,0.22,0.89,0.56,-1.121.40,
-0.4,0.22,0.89,0.56,-1.051.68,
-0.4,0.22,0.89,0.63,-1.191.96,
-0.4,0.22,0.89,0.91,-1.191.75,
-0.4,0.22,0.89,1.12,-0.981.33,
-0.4,0.23,0.89,1.19,-1.121.75,
-0.4,0.23,0.89,1.26,-1.191.40,
-0.39,0.23,0.89,1.19,-1.331.40,
-0.4,0.23,0.89,1.05,-1.191.54,
-0.4,0.23,0.89,0.98,-1.121.19,
-0.4,0.23,0.89,0.77,-1.051.19,
-0.4,0.23,0.89,0.7,-1.121.33,
-0.39,0.23,0.89,0.49,-1.191.26,
-0.39,0.23,0.89,0.56,-1.121.26,
-0.39,0.23,0.89,0.7,-1.260.98,
-0.39,0.23,0.89,0.63,-1.261.05,
-0.39,0.23,0.89,0.49,-1.121.33,
-0.38,0.23,0.89,0.63,-1.051.12,
-0.38,0.23,0.89,0.56,-0.771.26,
-0.38,0.23,0.89,0.49,-0.631.26,
-0.37,0.23,0.89,0.49,-0.631.12,
-0.37,0.23,0.9,0.42,-0.491.19,
-0.37,0.23,0.91,0.49,-0.211.33,
-0.38,0.23,0.91,0.42,0.071.61,
-0.38,0.23,0.9,0.35,0.631.47,
-0.38,0.23,0.9,0.21,0.841.40,
-0.39,0.22,0.9,0.21,0.771.68,
-0.39,0.22,0.89,0.21,0.771.61,
-0.4,0.23,0.89,0.07,0.701.89,
-0.4,0.23,0.89,-0.07,0.841.96,
-0.4,0.23,0.89,0,0.631.75,
-0.4,0.23,0.89,-0.07,0.422.17,
-0.4,0.23,0.89,-0.07,0.422.31,
-0.4,0.23,0.89,0,0.212.31,
-0.4,0.23,0.89,0.21,0.352.45,
-0.4,0.23,0.89,0.21,0.072.45,
-0.4,0.23,0.89,0.21,0.072.17,
-0.4,0.23,0.89,0.49,-0.281.75,
-0.4,0.23,0.89,0.56,-0.421.75,
-0.4,0.23,0.89,0.56,-0.351.75,
-0.4,0.23,0.89,0.63,-0.561.40,
-0.4,0.23,0.89,0.63,-0.491.61,
-0.4,0.23,0.89,0.7,-0.631.75,
-0.4,0.23,0.89,0.63,-0.630.98,
-0.4,0.23,0.89,0.42,-0.631.19,
-0.4,0.23,0.89,0.35,-0.631.54,
-0.39,0.23,0.89,0.35,-0.491.40,
-0.39,0.23,0.89,0.56,-0.281.19,
-0.39,0.23,0.89,0.7,-0.281.05,
-0.38,0.23,0.89,0.98,-0.211.05,
-0.39,0.22,0.9,1.05,-0.350.91,
-0.39,0.23,0.9,1.12,-0.071.12,
-0.39,0.22,0.9,1.4,0.141.05,
-0.39,0.22,0.9,1.26,0.141.05,
-0.4,0.23,0.9,1.26,-0.141.61,
-0.4,0.23,0.9,1.05,0.001.40,
-0.4,0.24,0.89,0.77,-0.071.61,
-0.39,0.24,0.89,0.42,-0.141.68,
-0.39,0.23,0.89,0.21,0.071.47,
-0.39,0.23,0.89,0.21,-0.141.40,
-0.39,0.23,0.89,0.14,-0.211.40,
-0.39,0.23,0.89,0,-0.211.19,
-0.39,0.22,0.89,0,-0.071.33,
-0.39,0.21,0.89,0.14,-0.211.68,
-0.39,0.21,0.9,0.63,-0.211.61,
-0.39,0.21,0.9,1.05,0.351.33,
-0.39,0.22,0.9,1.05,0.491.61,
-0.4,0.22,0.89,0.91,0.841.54,
-0.39,0.23,0.89,0.84,0.771.82,
-0.39,0.23,0.89,0.77,0.561.89,
-0.39,0.23,0.89,0.7,0.421.68,
-0.39,0.23,0.89,0.35,0.211.54,
-0.4,0.23,0.89,0.14,0.001.54,
-0.4,0.23,0.9,0.28,-0.071.54,
-0.43,0.22,0.88,1.26,0.001.19,
-0.43,0.22,0.88,1.33,-0.140.84,
-0.43,0.22,0.88,1.26,-0.420.84,
-0.43,0.22,0.88,1.19,-0.420.77,
-0.43,0.22,0.88,1.12,-0.490.91,
-0.42,0.22,0.88,1.12,-0.560.63,
-0.42,0.22,0.88,1.19,-0.700.70,
-0.42,0.22,0.88,1.19,-0.700.98,
-0.42,0.22,0.88,1.05,-0.560.70,
-0.42,0.22,0.88,1.12,-0.630.84,
-0.42,0.22,0.88,0.98,-0.421.12,
-0.42,0.22,0.88,1.12,-0.490.98,
-0.42,0.22,0.89,0.98,-0.561.19,
-0.42,0.22,0.89,0.98,-0.630.77,
-0.42,0.22,0.89,0.77,-0.561.12,
-0.41,0.22,0.89,0.77,-0.281.12,
-0.41,0.22,0.88,0.77,-0.211.19,
-0.41,0.22,0.89,0.77,0.071.12,
-0.41,0.22,0.89,0.84,0.281.05,
-0.42,0.22,0.88,0.84,0.211.12,
-0.42,0.22,0.88,0.91,0.281.26,
-0.42,0.22,0.88,0.91,0.281.26,
-0.42,0.22,0.88,0.98,0.351.12,
-0.42,0.22,0.88,0.91,0.071.26,
-0.43,0.22,0.88,0.98,0.070.91,
-0.43,0.22,0.88,0.91,0.071.12,
-0.43,0.22,0.88,0.91,0.001.05,
-0.43,0.22,0.88,0.98,-0.140.91,
-0.43,0.22,0.88,0.91,-0.281.40,
-0.43,0.22,0.88,0.77,-0.350.98,
-0.43,0.22,0.88,0.7,-0.350.98,
-0.43,0.22,0.88,0.63,-0.491.26,
-0.43,0.22,0.88,0.7,-0.631.05,
-0.43,0.22,0.88,0.98,-0.701.19,
-0.43,0.22,0.89,1.12,-0.560.70,
-0.42,0.22,0.88,1.33,-0.770.63,
-0.42,0.22,0.88,1.33,-0.770.70,
-0.42,0.22,0.88,1.26,-0.700.77,
-0.42,0.22,0.88,1.26,-0.630.63,
-0.42,0.22,0.88,1.19,-0.770.91,
-0.43,0.22,0.88,0.84,-0.840.77,
-0.42,0.22,0.88,0.91,-1.120.35,
-0.42,0.22,0.89,0.77,-1.050.63,
-0.42,0.22,0.89,0.91,-1.050.35,
-0.42,0.22,0.89,0.84,-0.840.63,
-0.42,0.21,0.89,1.12,-1.050.77,
-0.42,0.21,0.88,0.91,-0.910.49,
-0.42,0.21,0.88,0.98,-0.980.91,
-0.41,0.21,0.88,0.98,-0.841.12,
-0.42,0.21,0.88,1.12,-0.561.26,
-0.42,0.21,0.88,0.91,-0.561.47,
-0.42,0.21,0.88,0.77,-0.491.68,
-0.42,0.21,0.89,0.84,-0.351.54,
-0.42,0.21,0.89,0.7,-0.281.61,
-0.42,0.22,0.88,0.77,-0.491.82,
-0.42,0.22,0.88,0.77,-0.211.54,
-0.42,0.22,0.88,0.84,-0.421.61,
-0.42,0.22,0.88,0.91,-0.211.82,
-0.42,0.22,0.88,0.98,-0.071.61,
-0.42,0.22,0.88,1.05,-0.281.75,
-0.42,0.22,0.88,1.12,-0.281.75,
-0.42,0.22,0.88,1.19,-0.281.54,
-0.42,0.23,0.88,1.12,-0.351.05,
-0.42,0.22,0.88,1.12,-0.351.26,
-0.42,0.22,0.88,1.05,-0.421.19,
-0.42,0.22,0.88,1.19,-0.491.05,
-0.43,0.22,0.88,0.98,-0.420.98,
-0.42,0.22,0.89,1.05,-0.351.05,
-0.42,0.23,0.88,1.12,-0.280.84,
-0.42,0.22,0.88,0.91,-0.490.91,
-0.42,0.22,0.88,0.84,-0.420.70,
-0.42,0.22,0.88,0.91,-0.280.63,
-0.43,0.22,0.88,0.91,-0.280.77,
-0.43,0.22,0.88,0.91,-0.280.63,
-0.42,0.22,0.88,0.91,-0.350.91,
-0.42,0.21,0.88,0.98,-0.350.91,
-0.42,0.21,0.88,1.05,-0.490.84,
-0.42,0.22,0.88,1.05,-0.280.77,
-0.42,0.22,0.88,1.12,-0.421.26,
-0.42,0.22,0.88,1.05,-0.351.19,
-0.42,0.22,0.88,0.98,-0.421.05,
-0.42,0.22,0.89,0.91,-0.351.47,
-0.42,0.22,0.88,0.7,-0.281.40,
-0.42,0.22,0.88,0.91,-0.351.19,
-0.42,0.22,0.88,0.91,-0.281.40,
-0.42,0.22,0.88,0.98,-0.491.26,
-0.42,0.22,0.89,0.91,-0.351.19,
-0.42,0.22,0.88,1.05,-0.421.26,
-0.42,0.22,0.88,0.91,-0.281.33,
-0.42,0.22,0.88,0.91,-0.211.12,
-0.42,0.22,0.88,0.84,-0.211.19,
-0.42,0.22,0.88,0.84,-0.140.91,
-0.42,0.22,0.88,0.84,-0.281.12,
-0.42,0.22,0.88,0.7,-0.351.19,
-0.42,0.22,0.88,0.84,-0.421.19,
-0.42,0.22,0.88,0.84,-0.560.91,
-0.42,0.22,0.88,0.7,-0.631.12,
-0.43,0.22,0.88,0.63,-0.631.19,
-0.42,0.22,0.88,0.63,-0.771.12,
-0.43,0.22,0.88,0.63,-0.771.19,
-0.42,0.22,0.88,0.7,-0.630.77,
-0.42,0.22,0.88,0.77,-0.911.12,
-0.41,0.22,0.89,1.19,-0.630.98,
-0.41,0.22,0.89,1.33,-0.420.56,
-0.41,0.22,0.89,1.26,-0.280.63,
-0.41,0.22,0.89,1.19,-0.140.84,
-0.42,0.22,0.89,0.98,-0.070.91,
-0.41,0.22,0.89,1.12,-0.140.63,
-0.42,0.22,0.89,1.05,0.070.98,
-0.42,0.22,0.89,1.05,0.000.84,
-0.42,0.22,0.88,1.12,-0.140.77,
-0.42,0.22,0.88,1.12,-0.140.91,
-0.42,0.22,0.88,1.05,-0.140.70,
-0.42,0.22,0.88,0.98,-0.350.91,
-0.42,0.23,0.88,0.63,-0.281.26,
-0.42,0.22,0.88,0.63,-0.281.12,
-0.42,0.22,0.88,0.63,-0.351.05,
-0.42,0.22,0.88,0.49,-0.281.26,
-0.42,0.22,0.88,0.56,-0.211.12,
-0.42,0.22,0.88,0.63,-0.211.12,
-0.42,0.21,0.88,0.49,-0.281.05,
-0.42,0.21,0.88,0.56,-0.281.19,
-0.42,0.21,0.89,0.7,-0.351.33,
-0.42,0.22,0.88,0.77,-0.211.33,
-0.43,0.22,0.89,0.98,-0.211.26,
-0.42,0.22,0.88,0.98,-0.071.19,
-0.42,0.22,0.88,1.12,-0.281.19,
-0.42,0.21,0.88,1.19,-0.140.98,
-0.42,0.22,0.88,1.19,-0.140.84,
-0.42,0.22,0.88,1.12,-0.141.19,
-0.42,0.22,0.88,1.12,-0.211.12,
-0.42,0.22,0.88,1.12,-0.421.26,
-0.42,0.22,0.88,1.33,-0.141.12,
-0.42,0.22,0.88,1.12,-0.420.98,
-0.42,0.22,0.88,0.84,-0.421.19,
-0.42,0.22,0.88,0.84,-0.351.12,
-0.42,0.22,0.88,0.7,-0.211.19,
-0.42,0.22,0.88,0.63,-0.350.98,
-0.42,0.23,0.88,0.49,-0.351.12,
-0.42,0.23,0.88,0.49,-0.491.05,
-0.42,0.22,0.88,0.56,-0.280.63,
-0.42,0.22,0.89,0.63,-0.280.70,
-0.42,0.22,0.89,0.77,-0.070.35,
-0.42,0.22,0.88,0.77,-0.280.42,
-0.42,0.22,0.88,0.91,-0.140.42,
-0.42,0.22,0.88,0.98,-0.140.35,
-0.42,0.22,0.88,1.12,-0.070.28,
-0.42,0.22,0.88,1.05,-0.070.28,
-0.42,0.21,0.88,0.91,0.070.35,
-0.42,0.21,0.88,1.05,-0.140.42,
-0.42,0.21,0.88,1.12,-0.070.70,
-0.42,0.21,0.88,0.91,-0.070.56,
-0.42,0.21,0.88,1.12,-0.070.56,
-0.42,0.21,0.89,1.19,-0.070.70,
-0.42,0.21,0.88,1.05,-0.070.70,
-0.42,0.21,0.88,1.12,-0.140.84,
-0.42,0.21,0.88,1.12,-0.070.84,
-0.42,0.22,0.88,0.98,-0.141.12,
-0.42,0.22,0.88,1.05,-0.141.26,
-0.42,0.22,0.88,0.91,-0.281.40,
-0.42,0.22,0.88,0.84,-0.281.47,
-0.42,0.22,0.88,0.84,-0.211.47,
-0.42,0.22,0.88,0.84,-0.281.40,
-0.42,0.22,0.88,0.84,-0.421.54,
-0.42,0.22,0.88,0.84,-0.491.19,
-0.42,0.22,0.88,1.05,-0.561.33,
-0.42,0.22,0.89,0.91,-0.561.33,
-0.42,0.22,0.89,0.91,-0.491.40,
-0.42,0.22,0.88,0.77,-0.491.40,
-0.43,0.22,0.88,0.91,-0.631.19,
-0.42,0.22,0.88,0.7,-0.770.84,
-0.42,0.22,0.88,0.49,-0.701.68,
-0.42,0.22,0.88,0.49,-0.701.33,
-0.42,0.22,0.88,0.63,-0.700.91,
-0.42,0.22,0.88,0.56,-0.561.12,
-0.42,0.22,0.88,0.63,-0.490.84,
-0.42,0.22,0.88,0.77,-0.490.77,
-0.42,0.22,0.88,0.91,-0.490.84,
-0.42,0.21,0.88,1.05,-0.560.84,
-0.42,0.22,0.88,1.12,-0.490.49,
-0.42,0.22,0.88,1.26,-0.490.77,
-0.42,0.22,0.88,1.12,-0.490.77,
-0.42,0.22,0.88,1.05,-0.420.56,
-0.42,0.22,0.88,1.19,-0.420.49,
-0.42,0.22,0.88,1.26,-0.350.28,
-0.42,0.22,0.88,1.33,-0.350.28,
-0.42,0.22,0.88,1.33,-0.280.35,
-0.42,0.21,0.89,1.33,-0.140.56,
-0.41,0.22,0.89,1.33,-0.140.63,
-0.42,0.21,0.89,1.4,-0.210.63,
-0.42,0.22,0.88,1.33,-0.140.77,
-0.42,0.22,0.88,1.33,0.001.05,
-0.42,0.22,0.89,1.12,-0.141.19,
-0.42,0.22,0.88,1.05,0.001.33,
-0.42,0.22,0.89,0.84,0.281.33,
-0.42,0.22,0.88,0.77,0.141.54,
-0.42,0.23,0.88,0.7,0.001.61,
-0.42,0.23,0.89,0.7,0.001.68,
-0.42,0.22,0.88,0.49,-0.141.75,
-0.42,0.22,0.88,0.35,-0.141.82,
-0.42,0.22,0.88,0.21,-0.211.82,
-0.42,0.22,0.88,0.21,0.001.96,
-0.42,0.22,0.88,0.21,-0.212.17,
-0.43,0.22,0.88,0.07,-0.211.68,
-0.43,0.22,0.88,0.07,-0.281.82,
-0.43,0.22,0.88,0.14,-0.491.82,
-0.42,0.22,0.88,0.28,-0.561.54,
-0.43,0.22,0.88,0.56,-0.491.40,
-0.42,0.22,0.88,0.77,-0.491.33,
-0.43,0.21,0.88,0.84,-0.420.91,
-0.43,0.22,0.88,0.98,-0.560.98,
-0.43,0.22,0.88,1.05,-0.421.05,
-0.43,0.22,0.88,1.26,-0.490.49,
-0.43,0.22,0.88,1.26,-0.350.70,
-0.42,0.22,0.88,1.26,-0.420.56,
-0.42,0.22,0.88,1.19,-0.280.63,
-0.42,0.22,0.88,1.33,-0.280.56,
-0.42,0.22,0.88,1.33,-0.350.63,
-0.42,0.22,0.88,1.26,-0.490.56,
-0.42,0.22,0.88,1.4,-0.420.49,
-0.42,0.22,0.88,1.26,-0.490.70,
-0.42,0.22,0.88,1.19,-0.630.70,
-0.42,0.22,0.88,1.05,-0.630.77,
-0.42,0.22,0.88,0.98,-0.631.05,
-0.42,0.22,0.89,0.84,-0.561.12,
-0.41,0.22,0.88,0.77,-0.421.33,
-0.41,0.22,0.88,0.77,-0.561.26,
-0.41,0.21,0.89,0.7,-0.561.26,
-0.42,0.22,0.88,0.77,-0.281.40,
-0.42,0.22,0.88,0.63,-0.141.68,
-0.42,0.22,0.88,0.7,-0.210.98,
-0.42,0.22,0.89,0.77,-0.421.19,
-0.42,0.22,0.88,0.63,-0.281.54,
-0.42,0.22,0.88,0.7,-0.211.19,
-0.42,0.22,0.88,0.7,0.001.19,
-0.42,0.22,0.88,0.77,0.001.54,
-0.42,0.22,0.88,0.7,-0.071.19,
-0.43,0.22,0.88,0.7,-0.281.47,
-0.43,0.22,0.88,0.77,-0.421.26,
-0.42,0.22,0.88,0.91,-0.351.26,
-0.42,0.22,0.88,0.91,-0.281.19,
-0.42,0.22,0.88,0.84,-0.141.33,
-0.42,0.22,0.88,1.19,-0.350.84,
-0.42,0.22,0.89,1.19,-0.420.70,
-0.42,0.22,0.88,1.19,-0.420.98,
-0.42,0.22,0.88,1.05,-0.281.05,
-0.42,0.22,0.88,1.12,-0.350.77,
-0.42,0.22,0.88,1.05,-0.420.98,
-0.42,0.22,0.88,0.98,-0.421.05,
-0.42,0.22,0.88,0.98,-0.351.05,
-0.42,0.22,0.88,1.05,-0.490.98,
-0.42,0.22,0.89,1.05,-0.281.19,
-0.42,0.22,0.88,1.05,-0.350.98,
-0.42,0.22,0.88,1.05,-0.281.19,
-0.42,0.22,0.88,1.19,-0.351.12,
-0.42,0.22,0.88,1.26,-0.351.40,
-0.42,0.22,0.88,1.12,-0.561.12,
-0.42,0.22,0.88,1.05,-0.770.98,
-0.42,0.22,0.88,0.77,-0.631.26,
-0.42,0.22,0.88,0.7,-0.561.12,
-0.42,0.22,0.88,0.7,-0.421.19,
-0.42,0.22,0.89,0.49,-0.561.33,
-0.42,0.22,0.88,0.56,-0.561.54,
-0.42,0.22,0.88,0.56,-0.561.12,
-0.42,0.21,0.88,0.63,-0.491.12,
-0.42,0.22,0.88,0.7,-0.351.33,
-0.42,0.21,0.88,0.84,-0.561.12,
-0.42,0.22,0.88,0.98,-0.420.98,
-0.42,0.21,0.88,0.98,-0.281.12,
-0.42,0.22,0.88,0.98,-0.351.19,
-0.42,0.22,0.88,0.91,-0.280.98,
-0.42,0.22,0.88,0.98,-0.421.19,
-0.42,0.22,0.88,0.91,-0.281.12,
-0.42,0.22,0.88,0.84,-0.281.12,
-0.42,0.22,0.88,0.77,-0.141.26,
-0.42,0.22,0.88,0.77,-0.070.98,
-0.42,0.22,0.88,0.91,-0.071.12,
-0.42,0.22,0.88,1.05,-0.210.91,
-0.42,0.22,0.88,0.98,-0.280.98,
-0.42,0.22,0.88,0.91,-0.280.84,
-0.42,0.22,0.88,0.77,-0.210.98,
-0.42,0.22,0.88,1.05,-0.210.84,
-0.42,0.22,0.88,0.77,-0.211.05,
-0.42,0.22,0.88,0.91,-0.281.33,
-0.42,0.22,0.88,0.91,-0.421.19,
-0.42,0.22,0.89,0.77,-0.561.26,
-0.42,0.22,0.89,0.84,-0.491.19,
-0.42,0.22,0.88,0.84,-0.560.91,
-0.42,0.22,0.88,0.84,-0.561.05,
-0.42,0.22,0.88,0.7,-0.491.47,
-0.42,0.22,0.88,0.77,-0.421.05,
-0.42,0.22,0.88,0.84,-0.421.05,
-0.42,0.22,0.88,0.91,-0.280.84,
-0.42,0.22,0.89,0.98,-0.350.98,
-0.42,0.22,0.88,0.91,-0.351.05,
-0.42,0.22,0.88,0.77,-0.210.77,
-0.42,0.22,0.88,0.84,-0.141.05,
-0.42,0.22,0.88,0.84,-0.211.05,
-0.42,0.22,0.88,0.98,-0.421.19,
-0.42,0.22,0.89,0.91,-0.491.05,
-0.42,0.22,0.88,0.84,-0.351.26,
-0.42,0.22,0.88,0.84,-0.491.19,
-0.42,0.22,0.88,0.84,-0.491.12,
-0.42,0.22,0.88,0.91,-0.421.19,
-0.42,0.22,0.88,0.84,-0.350.98,
-0.42,0.22,0.88,0.91,-0.420.98,
-0.42,0.22,0.88,0.91,-0.421.05,
-0.42,0.21,0.88,0.84,-0.491.26,
-0.42,0.22,0.88,0.98,-0.560.98,
-0.42,0.22,0.88,0.98,-0.281.12,
-0.42,0.22,0.88,0.98,-0.281.12,
-0.42,0.22,0.88,1.05,-0.351.19,
-0.42,0.22,0.88,0.98,-0.281.19,
-0.42,0.22,0.88,1.05,-0.280.98,
-0.42,0.22,0.88,1.12,-0.210.84,
-0.42,0.22,0.88,1.19,-0.140.91,
-0.42,0.22,0.88,1.19,-0.140.70,
-0.42,0.22,0.88,1.19,-0.280.84,
-0.42,0.22,0.88,1.05,-0.350.91,
-0.42,0.22,0.88,0.84,-0.560.91,
-0.42,0.22,0.88,0.77,-0.700.77,
-0.42,0.22,0.88,0.63,-0.631.05,
-0.42,0.22,0.88,0.7,-0.630.98,
-0.42,0.22,0.88,0.7,-0.770.91,
-0.42,0.22,0.88,0.77,-0.770.70,
-0.42,0.22,0.89,0.7,-0.630.98,
-0.42,0.22,0.89,0.84,-0.560.98,
-0.42,0.22,0.88,0.91,-0.280.49,
-0.42,0.22,0.88,1.12,-0.210.77,
-0.42,0.22,0.88,1.05,-0.281.12,
-0.42,0.22,0.88,1.12,-0.350.49,
-0.42,0.22,0.88,0.98,-0.350.77,
-0.42,0.21,0.89,0.91,-0.280.77,
-0.42,0.22,0.88,0.91,-0.420.77,
-0.42,0.22,0.88,0.77,-0.351.12,
-0.42,0.22,0.88,0.84,-0.280.84,
-0.42,0.22,0.88,0.84,-0.280.91,
-0.42,0.22,0.88,0.91,-0.351.19,
-0.42,0.22,0.88,0.91,-0.280.98,
-0.42,0.22,0.88,0.98,-0.420.84,
-0.42,0.22,0.88,0.98,-0.281.12,
-0.42,0.22,0.88,0.98,-0.560.84,
-0.42,0.22,0.88,0.91,-0.490.91,
-0.42,0.22,0.88,0.91,-0.421.12,
-0.42,0.22,0.88,0.91,-0.561.05,
-0.42,0.22,0.88,0.77,-0.561.05,
-0.42,0.22,0.88,0.84,-0.351.33,
-0.42,0.22,0.87,0.21,-0.560.91,
-0.42,0.22,0.86,-0.42,-1.330.98,
-0.42,0.21,0.87,-0.35,-1.820.56,
-0.41,0.21,0.89,-0.07,-2.030.77,
-0.41,0.2,0.89,-0.21,-1.821.12,
-0.41,0.19,0.9,0,-1.471.47,
-0.41,0.19,0.9,0.21,-1.192.38,
-0.42,0.2,0.9,0.42,-0.352.73,
-0.43,0.21,0.89,0.42,0.212.73,
-0.42,0.22,0.88,0.42,0.212.73,
-0.41,0.22,0.88,1.05,-0.212.31,
-0.41,0.21,0.88,1.33,-0.772.31,
-0.42,0.21,0.89,1.12,-1.262.87,
-0.44,0.22,0.88,0.35,-0.983.50,
-0.45,0.22,0.87,-0.63,-0.564.34,
-0.45,0.22,0.87,-1.54,-0.564.62,
-0.44,0.22,0.87,-2.31,-1.264.90,
-0.42,0.22,0.87,-2.45,-1.684.48,
-0.41,0.22,0.88,-1.96,-2.034.34,
-0.41,0.22,0.89,-1.19,-2.033.78,
-0.4,0.22,0.9,-0.49,-1.823.64,
-0.41,0.22,0.9,-0.14,-1.333.08,
-0.4,0.22,0.89,0.21,-0.912.59,
-0.4,0.22,0.89,0.63,-0.562.03,
-0.4,0.22,0.89,1.05,-0.211.54,
-0.4,0.22,0.89,1.47,0.141.19,
-0.41,0.23,0.89,1.75,0.700.84,
-0.41,0.23,0.89,1.96,1.050.42,
-0.41,0.23,0.88,2.1,1.050.00,
-0.41,0.24,0.89,1.96,1.12-0.07,
-0.41,0.24,0.89,1.96,0.98-0.49,
-0.41,0.24,0.89,1.96,1.33-0.70,
-0.41,0.24,0.89,1.68,1.26-0.77,
-0.41,0.23,0.88,0.98,1.12-0.98,
-0.42,0.22,0.89,0.42,1.19-0.84,
-0.43,0.22,0.89,-0.56,1.05-0.14,
-0.44,0.21,0.89,-0.91,0.630.21,
-0.45,0.21,0.88,-1.12,0.420.49,
-0.44,0.2,0.88,-1.05,0.211.05,
-0.43,0.2,0.88,-0.77,0.071.33,
-0.42,0.2,0.88,-0.56,0.001.40,
-0.41,0.2,0.88,-0.21,0.211.54,
-0.41,0.2,0.89,0.14,0.352.03,
-0.41,0.21,0.89,0.35,0.351.89,
-0.41,0.21,0.89,0.49,0.421.89,
-0.41,0.21,0.88,0.42,0.491.82,
-0.42,0.22,0.88,0.49,0.561.68,
-0.41,0.22,0.89,0.35,0.911.89,
-0.42,0.22,0.89,0.35,1.121.89,
-0.42,0.23,0.88,0.14,1.121.19,
-0.42,0.23,0.88,-0.14,1.051.19,
-0.42,0.23,0.88,-0.07,0.840.84,
-0.43,0.23,0.88,-0.14,0.700.56,
-0.43,0.22,0.88,-0.07,0.630.42,
-0.42,0.22,0.89,0.35,0.560.56,
-0.42,0.22,0.89,0.28,0.630.28,
-0.43,0.22,0.89,0,0.560.35,
-0.43,0.22,0.89,-0.35,0.700.35,
-0.43,0.22,0.89,-0.21,1.12-0.21,
-0.43,0.21,0.88,-0.07,0.84-0.35,
-0.42,0.21,0.88,0,1.12-0.77,
-0.42,0.2,0.88,0.49,1.12-0.84,
-0.42,0.2,0.88,0.84,1.19-1.05,
-0.42,0.2,0.88,1.26,1.26-0.91,
-0.43,0.2,0.88,1.54,1.19-1.05,
-0.42,0.2,0.88,1.89,1.26-1.19,
-0.42,0.2,0.88,1.75,1.33-1.05,
-0.43,0.2,0.88,1.61,1.40-0.77,
-0.43,0.2,0.88,1.68,1.68-0.42,
-0.42,0.2,0.88,1.75,1.82-0.07,
-0.42,0.2,0.88,2.24,1.750.00,
-0.42,0.2,0.88,2.38,1.610.28,
-0.42,0.21,0.88,2.38,1.330.63,
-0.42,0.21,0.89,2.38,1.120.91,
-0.43,0.22,0.89,2.31,1.051.26,
-0.43,0.22,0.89,1.75,1.052.17,
-0.43,0.22,0.88,1.19,0.772.52,
-0.43,0.23,0.88,0.35,0.492.94,
-0.43,0.23,0.87,-0.49,0.073.15,
-0.43,0.23,0.88,-0.98,0.073.29,
-0.42,0.23,0.88,-1.33,0.003.36,
-0.42,0.24,0.88,-1.61,-0.073.15,
-0.43,0.24,0.88,-2.1,-0.282.80,
-0.43,0.24,0.88,-2.45,-0.282.52,
-0.43,0.23,0.88,-2.8,-0.211.96,
-0.43,0.23,0.88,-2.8,0.141.40,
-0.43,0.23,0.88,-2.38,0.211.05,
-0.43,0.22,0.88,-1.82,0.700.28,
-0.42,0.21,0.88,-1.33,0.42-0.63,
-0.42,0.2,0.87,-0.84,0.42-1.12,
-0.42,0.19,0.88,-0.21,0.35-1.47,
-0.41,0.18,0.89,1.12,0.70-1.96,
-0.4,0.17,0.9,2.1,1.33-2.24,
-0.4,0.17,0.9,2.94,1.82-2.45,
-0.41,0.18,0.89,3.15,2.66-2.17,
-0.42,0.18,0.89,3.64,3.08-2.59,
-0.42,0.18,0.88,4.13,3.43-2.38,
-0.44,0.18,0.88,4.34,3.15-2.10,
-0.46,0.18,0.88,4.55,2.52-1.40,
-0.47,0.18,0.88,4.41,1.890.07,
-0.48,0.18,0.88,4.27,1.681.26,
-0.48,0.19,0.87,4.13,1.123.08,
-0.48,0.2,0.86,3.71,0.423.85,
-0.48,0.21,0.86,2.31,-1.054.62,
-0.47,0.23,0.86,0.63,-2.245.11,
-0.46,0.24,0.86,-0.91,-3.155.53,
-0.44,0.25,0.87,-1.96,-3.575.74,
-0.43,0.26,0.87,-2.17,-3.855.11,
-0.42,0.26,0.88,-2.45,-3.714.41,
-0.41,0.26,0.88,-2.38,-3.292.94,
-0.41,0.26,0.89,-2.17,-2.661.96,
-0.4,0.26,0.9,-1.33,-2.030.77,
-0.39,0.26,0.9,-0.84,-1.19-0.42,
-0.39,0.25,0.89,-0.21,-0.98-1.54,
-0.4,0.24,0.89,0.28,-0.56-2.24,
-0.41,0.23,0.88,0.63,-0.35-3.01,
-0.42,0.22,0.89,0.63,0.07-3.71,
-0.43,0.21,0.88,0.91,0.42-3.64,
-0.43,0.2,0.87,1.05,0.63-3.92,
-0.44,0.19,0.87,1.26,0.35-3.78,
-0.44,0.18,0.87,1.4,0.07-3.85,
-0.44,0.17,0.87,1.68,0.28-3.57,
-0.44,0.17,0.88,2.38,0.28-3.15,
-0.43,0.17,0.88,2.94,0.63-2.73,
-0.42,0.18,0.88,3.78,1.47-2.45,
-0.41,0.17,0.89,4.48,2.03-2.24,
-0.42,0.17,0.89,4.76,2.03-1.75,
-0.43,0.17,0.89,4.76,1.89-1.05,
-0.44,0.18,0.89,4.69,1.75-0.63,
-0.44,0.19,0.88,4.34,1.47-0.07,
-0.45,0.19,0.88,4.13,1.260.35,
-0.45,0.19,0.87,3.57,1.261.12,
-0.45,0.2,0.87,3.15,0.771.75,
-0.46,0.21,0.86,2.66,0.422.52,
-0.46,0.23,0.87,1.82,-0.213.01,
-0.46,0.23,0.87,0.91,-0.913.22,
-0.44,0.23,0.87,0.28,-1.683.15,
-0.43,0.24,0.87,0,-2.033.15,
-0.42,0.24,0.88,-0.21,-2.523.01,
-0.41,0.24,0.88,-0.07,-2.662.87,
-0.41,0.24,0.88,0.07,-2.312.52,
-0.41,0.24,0.88,0.14,-2.032.52,
-0.41,0.24,0.88,0.42,-1.891.89,
-0.42,0.24,0.87,0.28,-1.961.82,
-0.42,0.24,0.87,0.28,-2.101.61,
-0.43,0.24,0.87,0.28,-2.451.54,
-0.43,0.23,0.87,0.42,-2.801.26,
-0.44,0.23,0.88,0.49,-3.360.98,
-0.44,0.23,0.88,0.28,-3.430.70,
-0.44,0.22,0.88,0.07,-3.430.63,
-0.44,0.21,0.88,0.07,-3.640.98,
-0.44,0.2,0.88,0,-3.781.33,
-0.44,0.2,0.88,0.14,-3.711.33,
-0.44,0.19,0.88,0.35,-3.851.61,
-0.44,0.19,0.89,0.49,-3.852.10,
-0.43,0.18,0.89,0.84,-3.572.03,
-0.43,0.18,0.89,1.26,-3.221.89,
-0.42,0.18,0.89,1.61,-2.802.45,
-0.42,0.18,0.89,2.17,-2.382.24,
-0.41,0.18,0.89,2.38,-1.752.10,
-0.41,0.18,0.89,2.66,-1.472.17,
-0.41,0.18,0.89,2.52,-0.912.31,
-0.41,0.19,0.89,2.59,-0.212.17,
-0.42,0.19,0.89,2.66,0.352.45,
-0.42,0.2,0.89,2.8,0.632.59,
-0.42,0.21,0.89,2.52,1.192.66,
-0.42,0.22,0.89,2.52,1.402.38,
-0.42,0.23,0.89,2.24,1.542.17,
-0.42,0.23,0.88,1.89,1.332.52,
-0.42,0.24,0.88,1.47,0.982.17,
-0.42,0.24,0.88,1.19,0.912.03,
-0.42,0.24,0.88,0.98,0.701.75,
-0.43,0.24,0.88,0.98,0.701.75,
-0.43,0.24,0.88,1.05,0.911.12,
-0.43,0.23,0.88,0.91,0.841.54,
-0.43,0.23,0.88,0.84,0.491.61,
-0.43,0.24,0.87,0.77,0.421.33,
-0.43,0.24,0.87,0.42,0.211.19,
-0.43,0.23,0.87,0.07,-0.351.19,
-0.43,0.22,0.88,-0.14,-0.770.77,
-0.43,0.22,0.88,-0.07,-1.050.70,
-0.43,0.22,0.88,-0.21,-1.121.19,
-0.43,0.22,0.88,-0.28,-0.911.05,
-0.43,0.22,0.88,-0.42,-0.911.33,
-0.43,0.21,0.88,-0.63,-0.911.47,
-0.42,0.21,0.89,-0.21,-1.051.54,
-0.42,0.21,0.89,-0.07,-1.121.82,
-0.42,0.21,0.89,0.07,-1.052.10,
-0.42,0.21,0.89,0.07,-0.632.31,
-0.42,0.21,0.89,-0.21,-0.492.80,
-0.42,0.2,0.88,-0.42,-0.353.15,
-0.42,0.2,0.88,-0.56,-0.423.64,
-0.42,0.21,0.88,-0.56,-0.424.13,
-0.42,0.21,0.89,-0.49,-0.354.55,
-0.41,0.22,0.89,-0.35,-0.424.83,
-0.41,0.22,0.89,-0.42,-0.494.76,
-0.41,0.22,0.89,-1.05,-0.284.97,
-0.41,0.22,0.89,-1.26,-0.355.53,
-0.41,0.23,0.89,-1.75,-0.215.74,
-0.41,0.23,0.89,-2.24,-0.425.95,
-0.41,0.23,0.89,-2.87,-0.636.02,
-0.42,0.23,0.89,-3.85,-0.986.93,
-0.41,0.23,0.89,-4.27,-1.057.14,
-0.41,0.23,0.89,-4.41,-0.987.14,
-0.41,0.22,0.89,-4.41,-0.847.07,
-0.41,0.22,0.88,-4.2,-0.847.77,
-0.4,0.22,0.89,-4.06,-0.637.70,
-0.4,0.22,0.89,-3.99,-0.638.26,
-0.4,0.21,0.89,-3.99,-0.498.47,
-0.4,0.21,0.89,-3.99,-0.289.03,
-0.39,0.21,0.89,-3.92,-0.079.17,
-0.39,0.21,0.89,-3.71,0.219.59,
-0.39,0.21,0.89,-3.22,0.3510.15,
-0.4,0.21,0.89,-3.29,0.4210.50,
-0.4,0.22,0.89,-3.22,0.7010.50,
-0.41,0.22,0.89,-3.36,0.8410.43,
-0.41,0.22,0.89,-3.5,0.7010.85,
-0.42,0.22,0.89,-3.92,0.5611.06,
-0.42,0.23,0.89,-4.69,0.7011.13,
-0.43,0.23,0.9,-5.32,0.7010.85,
-0.42,0.22,0.89,-5.81,0.5611.41,
-0.42,0.22,0.89,-6.3,0.5611.41,
-0.41,0.22,0.89,-6.58,0.6311.48,
-0.41,0.21,0.89,-6.86,0.4212.04,
-0.41,0.21,0.89,-6.93,0.5612.11,
-0.4,0.21,0.89,-6.72,0.7012.46,
-0.4,0.2,0.89,-6.51,0.9812.74,
-0.4,0.2,0.89,-6.02,1.4712.67,
-0.4,0.2,0.88,-5.46,1.4713.23,
-0.4,0.2,0.88,-5.04,1.4713.44,
-0.41,0.2,0.88,-4.55,1.6113.79,
-0.41,0.2,0.89,-4.2,1.8913.79,
-0.41,0.2,0.88,-3.85,2.1714.00,
-0.42,0.21,0.88,-3.57,2.3813.93,
-0.42,0.21,0.88,-3.22,2.4514.00,
-0.42,0.21,0.88,-3.01,2.5214.21,
-0.42,0.21,0.89,-2.94,2.5214.14,
-0.42,0.21,0.89,-2.94,2.6614.07,
-0.42,0.21,0.88,-2.66,2.8714.07,
-0.42,0.21,0.88,-2.45,3.1513.65,
-0.42,0.21,0.89,-2.38,3.0813.86,
-0.42,0.21,0.89,-2.52,2.9414.00,
-0.42,0.22,0.89,-2.38,2.8713.30,
-0.42,0.22,0.89,-2.59,3.0813.09,
-0.43,0.22,0.89,-2.38,3.2212.81,
-0.43,0.21,0.88,-2.03,3.2912.18,
-0.42,0.21,0.88,-1.68,3.3612.04,
-0.43,0.21,0.88,-1.68,3.1512.04,
-0.43,0.21,0.88,-1.33,2.8711.48,
-0.43,0.21,0.88,-1.05,3.0111.13,
-0.43,0.2,0.87,-0.42,3.0811.13,
-0.43,0.2,0.87,0.21,3.0810.85,
-0.43,0.2,0.87,0.77,3.1510.71,
-0.43,0.2,0.87,1.4,3.0810.50,
-0.43,0.21,0.87,1.89,3.1510.50,
-0.43,0.21,0.87,2.52,3.2210.01,
-0.43,0.21,0.87,3.15,3.019.80,
-0.43,0.21,0.87,3.78,2.949.52,
-0.43,0.22,0.87,4.2,2.949.03,
-0.44,0.22,0.87,4.41,2.808.96,
-0.44,0.22,0.88,4.83,2.388.40,
-0.44,0.23,0.88,4.76,2.107.91,
-0.44,0.23,0.88,4.06,1.617.63,
-0.43,0.24,0.88,3.5,1.267.21,
-0.44,0.24,0.89,2.8,1.126.93,
-0.43,0.24,0.89,2.03,0.706.51,
-0.43,0.24,0.89,0.91,0.286.30,
-0.43,0.24,0.89,-0.14,0.076.16,
-0.43,0.24,0.89,-1.26,-0.285.88,
-0.43,0.24,0.89,-1.89,-0.635.60,
-0.42,0.23,0.89,-2.45,-0.915.53,
-0.43,0.23,0.89,-2.8,-0.845.39,
-0.42,0.23,0.88,-2.8,-0.705.46,
-0.42,0.22,0.88,-2.8,-0.635.18,
-0.42,0.22,0.87,-2.52,-0.845.32,
-0.42,0.22,0.87,-2.45,-0.775.39,
-0.42,0.22,0.87,-2.03,-0.845.39,
-0.42,0.22,0.87,-1.89,-0.775.53,
-0.41,0.22,0.88,-1.61,-0.775.95,
-0.42,0.22,0.88,-1.26,-0.775.81,
-0.42,0.22,0.88,-1.19,-0.635.81,
-0.42,0.22,0.88,-1.12,-0.355.88,
-0.41,0.22,0.88,-0.77,-0.075.95,
-0.41,0.22,0.88,-0.42,-0.075.60,
-0.41,0.23,0.89,-0.14,0.285.46,
-0.41,0.22,0.89,0.07,0.635.11,
-0.41,0.22,0.88,0.28,1.195.32,
-0.42,0.22,0.88,0.56,1.474.90,
-0.42,0.22,0.88,0.77,1.894.48,
-0.42,0.22,0.88,0.98,2.104.41,
-0.42,0.22,0.88,1.12,2.384.06,
-0.43,0.23,0.88,1.54,2.313.64,
-0.43,0.23,0.88,1.68,2.383.64,
-0.43,0.23,0.88,1.89,2.243.22,
-0.43,0.23,0.88,1.68,2.033.08,
-0.43,0.23,0.88,1.61,1.892.87,
-0.43,0.24,0.88,1.4,1.402.73,
-0.43,0.24,0.88,0.98,0.772.45,
-0.43,0.24,0.88,0.35,0.422.94,
-0.43,0.24,0.88,0.21,0.072.73,
-0.43,0.23,0.88,-0.14,-0.142.59,
-0.42,0.23,0.87,-0.21,-0.352.87,
-0.42,0.23,0.87,-0.07,-0.422.87,
-0.42,0.23,0.88,0,-0.632.80,
-0.42,0.23,0.88,0.28,-0.703.08,
-0.42,0.23,0.88,0.42,-0.632.94,
-0.42,0.23,0.88,0.42,-1.052.87,
-0.42,0.22,0.87,0.35,-1.052.94,
-0.42,0.22,0.87,0.42,-0.983.08,
-0.42,0.22,0.87,0.63,-1.053.15,
-0.42,0.22,0.88,0.84,-0.843.08,
-0.41,0.22,0.88,0.91,-0.702.87,
-0.41,0.22,0.88,0.98,-0.352.45,
-0.41,0.22,0.89,1.12,0.002.31,
-0.41,0.23,0.88,1.26,0.422.10,
-0.41,0.23,0.88,1.33,0.492.10,
-0.41,0.23,0.88,1.47,0.631.54,
-0.42,0.23,0.88,1.47,0.911.05,
-0.42,0.23,0.88,1.61,0.910.98,
-0.42,0.24,0.88,1.75,0.980.70,
-0.42,0.24,0.87,1.89,0.980.35,
-0.43,0.24,0.87,1.96,0.700.07,
-0.43,0.24,0.88,2.1,0.630.00,
-0.42,0.24,0.88,2.31,0.63-0.49,
-0.42,0.24,0.88,2.45,0.70-0.70,
-0.42,0.24,0.88,2.45,0.98-0.70,
-0.42,0.23,0.88,2.66,1.05-0.70,
-0.42,0.23,0.88,3.08,1.19-0.70,
-0.42,0.22,0.88,3.43,1.54-0.49,
-0.42,0.22,0.88,3.85,2.03-0.42,
-0.42,0.22,0.87,4.34,2.45-0.21,
-0.42,0.22,0.87,4.9,2.940.21,
-0.41,0.22,0.87,5.6,3.290.49,
-0.41,0.22,0.87,6.58,3.29-0.21,
-0.41,0.23,0.87,7.14,3.64-0.21,
-0.42,0.24,0.88,7.56,3.99-0.21,
-0.42,0.24,0.88,7.7,4.55-0.91,
-0.43,0.25,0.88,7.91,4.55-0.98,
-0.44,0.26,0.88,7.63,4.62-1.26,
-0.45,0.25,0.87,6.79,4.48-1.61,
-0.45,0.26,0.87,6.09,3.92-1.40,
-0.46,0.26,0.86,5.04,3.08-0.91,
-0.45,0.26,0.86,4.34,2.10-0.77,
-0.44,0.26,0.86,3.78,0.84-0.56,
-0.42,0.26,0.87,3.36,-0.42-0.14,
-0.4,0.26,0.88,2.59,-1.890.35,
-0.39,0.26,0.89,1.12,-2.591.12,
-0.38,0.26,0.9,-0.14,-2.941.54,
-0.38,0.25,0.89,-1.47,-3.012.10,
-0.39,0.24,0.89,-2.38,-2.943.29,
-0.39,0.24,0.89,-2.94,-2.803.57,
-0.4,0.23,0.89,-3.15,-2.454.13,
-0.41,0.23,0.88,-3.08,-2.034.76,
-0.42,0.23,0.87,-2.87,-1.824.76,
-0.42,0.23,0.86,-2.59,-1.404.97,
-0.43,0.23,0.86,-2.31,-1.264.83,
-0.43,0.24,0.87,-1.82,-0.844.76,
-0.43,0.24,0.87,-1.19,-0.354.34,
-0.44,0.24,0.87,-0.7,0.144.55,
-0.44,0.24,0.88,0.28,0.703.78,
-0.44,0.24,0.88,0.63,1.053.43,
-0.45,0.24,0.88,1.19,1.472.73,
-0.44,0.24,0.88,1.47,1.822.10,
-0.44,0.24,0.88,1.68,2.241.19,
-0.44,0.23,0.87,1.82,2.590.91,
-0.43,0.23,0.87,1.96,2.800.35,
-0.44,0.23,0.86,1.82,2.660.14,
-0.45,0.23,0.87,1.82,2.38-0.07,
-0.45,0.23,0.87,2.03,2.10-0.14,
-0.45,0.23,0.86,2.31,1.82-0.42,
-0.45,0.23,0.85,2.52,1.33-0.28,
-0.44,0.24,0.85,2.8,0.07-0.35,
-0.43,0.25,0.86,2.8,-0.84-0.35,
-0.42,0.25,0.86,2.73,-1.82-0.28,
-0.42,0.26,0.87,2.38,-2.73-0.35,
-0.42,0.26,0.88,2.17,-3.360.00,
-0.42,0.26,0.89,2.03,-3.500.14,
-0.42,0.26,0.88,1.47,-2.940.56,
-0.42,0.25,0.88,1.12,-3.430.77,
-0.41,0.25,0.88,0.28,-3.920.98,
-0.41,0.25,0.88,-0.28,-4.131.33,
-0.41,0.25,0.88,-0.84,-4.341.89,
-0.41,0.25,0.88,-0.98,-4.272.17,
-0.41,0.24,0.88,-1.26,-4.062.59,
-0.41,0.24,0.88,-1.4,-3.502.73,
-0.41,0.24,0.88,-1.47,-3.293.01,
-0.4,0.23,0.88,-1.47,-2.873.29,
-0.4,0.23,0.88,-1.61,-2.523.29,
-0.4,0.23,0.89,-1.68,-2.103.50,
-0.4,0.23,0.89,-1.54,-1.473.85,
-0.4,0.22,0.89,-1.4,-1.053.71,
-0.4,0.22,0.88,-1.19,-0.494.06,
-0.4,0.22,0.88,-0.98,-0.144.20,
-0.41,0.22,0.88,-0.63,0.074.20,
-0.42,0.22,0.88,-0.56,0.214.48,
-0.43,0.23,0.88,-0.42,0.284.69,
-0.43,0.23,0.87,-0.21,0.284.62,
-0.43,0.24,0.87,-0.28,0.075.04,
-0.44,0.25,0.87,-0.35,-0.354.97,
-0.44,0.25,0.86,-0.21,-0.984.76,
-0.44,0.25,0.86,-0.07,-1.544.55,
-0.44,0.25,0.87,0.07,-1.964.48,
-0.43,0.25,0.87,0.14,-2.314.55,
-0.44,0.25,0.87,0.14,-2.594.13,
-0.43,0.25,0.87,0.14,-2.593.92,
-0.43,0.25,0.87,-0.21,-2.873.43,
-0.43,0.25,0.88,-0.42,-3.083.15,
-0.43,0.25,0.88,-0.49,-3.012.87,
-0.42,0.24,0.87,-0.42,-3.012.03,
-0.42,0.24,0.85,-0.07,-2.940.70,
-0.49,0.28,0.79,12.46,-9.52-3.78,
-0.58,0.33,0.84,12.11,-13.51-9.87,
-0.45,0.2,0.88,12.32,-13.44-7.84,
-0.26,0.18,0.96,11.27,-6.30-1.40,
-0.27,0.22,0.93,-0.98,-3.573.08,
-0.32,0.22,0.9,-7.84,-1.824.55,
-0.49,0.23,0.89,-5.74,-1.403.78,
-0.44,0.25,0.93,-4.2,-0.141.68,
-0.48,0.24,0.92,0,2.310.56,
-0.47,0.25,0.88,3.78,2.38-1.19,
-0.41,0.23,0.89,4.55,1.40-1.89,
-0.37,0.21,0.88,3.15,0.63-1.89,
-0.37,0.24,0.87,2.38,0.63-1.89,
-0.37,0.27,0.89,1.96,1.61-2.03,
-0.39,0.26,0.88,3.43,1.19-1.19,
-0.41,0.25,0.9,4.83,0.91-0.07,
-0.42,0.24,0.89,5.18,1.470.42,
-0.41,0.24,0.87,4.9,1.750.70,
-0.39,0.23,0.86,3.36,1.122.31,
-0.38,0.23,0.89,1.26,0.984.20,
-0.4,0.22,0.92,-0.35,3.716.58,
-0.4,0.24,0.98,0.63,7.987.49,
-0.4,0.26,1.05,-1.26,14.357.84,
-0.39,0.28,1.06,-0.7,23.458.75,
-0.41,0.29,1,-0.14,27.098.47,
-0.4,0.35,0.97,-2.45,21.565.04,
-0.39,0.38,0.93,-8.82,10.641.61,
-0.42,0.37,0.96,-16.38,6.79-0.07,
-0.45,0.38,1,-21.35,12.11-1.82,
-0.46,0.4,1,-26.11,18.55-5.04,
-0.44,0.41,0.98,-33.6,16.59-9.66,
-0.43,0.36,0.96,-41.44,13.16-12.67,
-0.44,0.29,0.94,-45.64,9.87-14.07,
-0.45,0.23,0.89,-44.8,8.75-15.19,
-0.47,0.19,0.79,-42.91,6.02-14.28,
-0.5,0.15,0.76,-39.76,2.80-12.81,
-0.52,0.13,0.8,-36.47,2.52-11.83,
-0.54,0.16,0.78,-37.31,2.59-10.57,
-0.51,0.17,0.77,-39.97,-1.40-8.96,
-0.43,0.15,0.75,-41.58,-8.33-5.60,
-0.37,0.14,0.75,-41.72,-13.23-2.66,
-0.35,0.16,0.77,-41.93,-16.450.28,
-0.37,0.15,0.77,-38.92,-18.411.68,
-0.37,0.18,0.82,-37.87,-17.504.48,
-0.4,0.18,0.85,-37.73,-17.225.88,
-0.42,0.18,0.88,-38.43,-15.896.16,
-0.42,0.17,0.88,-39.34,-15.475.60,
-0.43,0.12,0.88,-37.87,-15.405.67,
-0.44,0.11,0.86,-35.49,-15.125.74,
-0.43,0.09,0.85,-31.92,-14.495.46,
-0.43,0.08,0.86,-27.44,-13.094.83,
-0.42,0.08,0.88,-22.33,-10.713.29,
-0.42,0.08,0.9,-19.32,-8.471.75,
-0.41,0.07,0.91,-18.62,-6.930.49,
-0.4,0.06,0.9,-19.81,-5.53-0.28,
-0.38,0.04,0.86,-20.58,-7.21-0.07,
-0.38,0.02,0.86,-19.74,-9.101.26,
-0.4,0.04,0.9,-17.36,-7.842.45,
-0.42,0.01,0.89,-16.24,-3.081.61,
-0.41,0.01,0.88,-12.39,0.000.14,
-0.43,0.03,0.87,-11.41,1.75-1.75,
-0.43,0,0.88,-12.32,0.91-1.40,
-0.43,-0.01,0.91,-13.23,0.00-1.82,
-0.44,-0.02,0.89,-11.55,0.56-2.17,
-0.44,-0.05,0.91,-8.26,1.75-2.10,
-0.4,-0.02,0.9,-6.65,3.99-1.33,
-0.38,0,0.91,-2.03,4.48-1.26,
-0.4,0.06,0.93,2.17,3.57-1.47,
-0.44,0.07,0.94,0,1.82-0.70,
-0.46,0.07,0.94,-3.43,2.730.42,
-0.45,0.05,0.9,-5.25,3.220.84,
-0.44,0.02,0.89,-6.3,2.311.26,
-0.42,0.04,0.88,-6.3,0.842.03,
-0.41,0.07,0.9,-4.83,-2.102.73,
-0.4,0.14,0.9,-8.61,-3.294.97,
-0.41,0.21,0.98,-14.07,-4.976.44,
-0.41,0.22,1.04,-19.53,-5.539.17,
-0.46,0.17,1.06,-25.69,-8.8210.57,
-0.48,0.08,1.07,-32.9,-14.289.66,
-0.51,0.02,0.99,-38.36,-16.525.88,
-0.49,-0.02,0.9,-41.23,-13.510.98,
-0.46,0,0.83,-39.06,-7.98-3.29,
-0.48,-0.02,0.83,-34.93,-6.44-4.13,
-0.47,-0.02,0.91,-29.96,-5.67-2.80,
-0.44,0.01,0.98,-28.98,-5.95-2.10,
-0.39,-0.02,1,-32.83,-9.59-3.50,
-0.37,-0.11,0.95,-36.47,-9.66-5.74,
-0.3,-0.1,0.9,-36.89,0.56-7.56,
-0.33,-0.12,0.84,-29.05,7.14-9.45,
-0.35,-0.13,0.8,-18.2,10.99-7.63,
-0.33,-0.1,0.78,-9.73,9.24-6.02,
-0.34,-0.05,0.82,-1.68,4.41-4.90,
-0.35,0.01,0.85,-2.03,2.59-3.85,
-0.4,-0.02,0.91,0.77,5.11-3.22,
-0.43,0,0.9,2.59,7.49-3.29,
-0.43,0.02,0.86,5.04,6.23-4.13,
-0.42,-0.03,0.87,10.92,5.67-5.88,
-0.38,-0.09,0.81,17.01,5.88-5.88,
-0.35,-0.06,0.78,22.4,2.10-4.97,
-0.29,0,0.78,28.21,1.54-3.29,
-0.26,0.05,0.79,32.55,-1.33-0.91,
-0.27,0,0.85,35.35,-2.731.54,
-0.32,-0.03,0.89,37.87,-1.053.64,
-0.41,0,0.89,42.28,2.874.34,
-0.43,0.02,0.87,45.36,8.824.55,
-0.44,0.1,0.86,47.81,9.106.16,
-0.44,0.06,0.89,47.46,6.727.14,
-0.44,-0.15,0.9,42.35,1.1210.29,
-0.46,-0.2,0.91,38.5,-3.2214.35,
-0.44,0.09,0.94,35.42,-3.7818.20,
-0.39,0.15,1.02,31.5,-2.3117.29,
-0.4,0.17,1.11,27.23,-1.7513.58,
-0.43,0.09,1.06,23.38,-3.369.59,
-0.44,0.02,0.97,24.36,-5.466.79,
-0.42,0.06,0.9,26.53,-5.956.09,
-0.4,0.12,0.88,25.76,-6.866.09,
-0.4,0.12,0.88,21.77,-10.295.11,
-0.41,0.09,0.9,17.43,-14.984.69,
-0.44,0.09,0.92,14.07,-16.735.67,
-0.45,0.11,0.93,10.5,-17.016.86,
-0.45,0.12,0.95,7.77,-17.648.12,
-0.45,0.12,0.97,4.83,-18.348.26,
-0.45,0.11,0.98,2.8,-18.557.42,
-0.43,0.12,0.99,2.24,-16.806.30,
-0.41,0.13,0.98,1.82,-13.585.04,
-0.39,0.13,0.98,1.61,-10.853.29,
-0.38,0.14,0.97,0.98,-9.522.38,
-0.36,0.13,0.97,-1.61,-8.191.82,
-0.35,0.12,0.95,-2.73,-7.001.33,
-0.36,0.13,0.95,-4.48,-5.740.77,
-0.37,0.11,0.93,-4.48,-4.76-0.14,
-0.38,0.11,0.92,-3.43,-3.85-1.12,
-0.39,0.11,0.91,-2.45,-3.57-1.89,
-0.4,0.11,0.9,-1.33,-3.36-2.59,
-0.41,0.11,0.89,0,-4.13-3.43,
-0.43,0.11,0.88,-0.42,-6.16-3.01,
-0.44,0.12,0.88,-1.89,-8.47-3.43,
-0.45,0.12,0.88,-3.22,-10.99-4.06,
-0.46,0.13,0.88,-4.27,-13.30-4.69,
-0.44,0.14,0.9,-5.74,-16.24-4.97,
-0.43,0.14,0.91,-6.72,-20.65-5.74,
-0.4,0.12,0.96,-8.05,-25.20-6.65,
-0.34,0.09,1.02,-8.12,-28.70-7.70,
-0.31,0.09,1.04,-10.85,-30.31-8.12,
-0.28,0.06,1.02,-14.7,-26.18-8.54,
-0.24,0.02,0.98,-11.62,-19.88-9.17,
-0.21,-0.01,0.95,-6.72,-15.47-9.45,
-0.18,-0.03,0.93,-2.45,-14.28-8.89,
-0.19,-0.02,0.97,0.56,-13.72-8.33,
-0.23,-0.01,1.02,1.33,-9.94-8.40,
-0.28,0,1.01,3.29,-2.73-8.47,
-0.3,0.01,0.98,5.6,0.21-9.17,
-0.3,0.02,0.96,5.95,1.05-9.66,
-0.31,0.03,0.96,6.09,1.82-10.22,
-0.32,0.05,0.99,5.11,4.41-10.85,
-0.32,0.08,0.99,3.22,8.47-11.69,
-0.3,0.07,0.95,2.03,10.99-11.48,
-0.28,0.05,0.9,2.73,12.46-12.11,
-0.27,0.03,0.92,1.89,15.12-13.37,
-0.26,0.01,0.95,1.61,19.39-13.30,
-0.28,0.01,0.92,3.08,22.68-13.09,
-0.31,0,0.94,5.11,24.57-12.53,
-0.33,0,0.94,7.35,26.25-12.11,
-0.36,0,0.92,9.03,26.39-11.97,
-0.38,-0.02,0.92,10.99,26.39-11.48,
-0.39,-0.02,0.93,13.37,26.88-10.29,
-0.4,0,0.94,14.35,27.44-10.01,
-0.41,0.02,0.93,15.75,28.35-10.29,
-0.42,0.05,0.93,16.1,27.72-10.64,
-0.42,0.09,0.93,15.82,27.86-11.69,
-0.42,0.09,0.94,16.38,28.77-13.02,
-0.43,0.1,0.92,15.96,28.00-13.93,
-0.45,0.11,0.92,14.91,26.25-14.14,
-0.47,0.12,0.93,13.3,22.40-14.28,
-0.48,0.14,0.92,11.69,19.67-14.91,
-0.49,0.15,0.9,10.29,15.75-15.89,
-0.51,0.15,0.9,8.61,8.12-17.50,
-0.51,0.12,0.91,7.21,4.48-17.78,
-0.52,0.1,0.91,5.39,0.70-17.22,
-0.54,0.09,0.89,4.2,-3.36-16.38,
-0.58,0.11,0.88,3.08,-7.77-14.70,
-0.56,0.12,0.87,2.8,-10.85-11.76,
-0.5,0.11,0.86,2.38,-13.16-9.24,
-0.49,0.1,0.85,0.42,-18.55-7.21,
-0.47,0.11,0.86,-3.43,-22.33-6.02,
-0.45,0.1,0.87,-5.25,-24.78-5.18,
-0.43,0.08,0.89,-7.49,-26.74-3.78,
-0.4,0.07,0.9,-8.75,-27.30-2.52,
-0.35,0.08,0.91,-9.45,-25.27-0.91,
-0.35,0.08,0.91,-9.52,-22.540.63,
-0.35,0.07,0.91,-9.17,-21.140.84,
-0.36,0.07,0.91,-8.61,-20.020.84,
-0.4,0.06,0.92,-8.33,-20.860.91,
-0.42,0.06,0.95,-8.4,-19.811.05,
-0.42,0.06,0.97,-8.54,-18.062.38,
-0.43,0.07,0.97,-8.12,-17.154.41,
-0.41,0.08,0.97,-9.03,-16.035.88,
-0.36,0.09,0.96,-10.15,-14.006.93,
-0.31,0.1,0.96,-11.41,-12.467.77,
-0.27,0.1,0.96,-13.09,-11.348.89,
-0.24,0.11,0.97,-14.56,-10.019.03,
-0.22,0.11,1,-15.33,-7.779.24,
-0.19,0.11,1.01,-16.87,-4.209.52,
-0.19,0.09,1,-18.55,-1.339.38,
-0.22,0.06,0.98,-18.76,1.269.24,
-0.25,0.04,0.95,-16.94,3.158.26,
-0.27,0.02,0.92,-13.65,5.257.00,
-0.3,0,0.91,-9.52,6.305.39,
-0.31,0,0.9,-5.39,6.794.62,
-0.32,0,0.9,-2.1,7.913.85,
-0.34,0.01,0.9,-0.07,8.404.13,
-0.37,0.01,0.91,0.28,8.614.55,
-0.4,0.02,0.93,-0.28,8.195.53,
-0.42,0.03,0.93,-1.68,7.006.65,
-0.41,0.04,0.94,-3.5,5.747.49,
-0.39,0.05,0.95,-4.76,4.907.91,
-0.36,0.05,0.95,-4.83,5.187.77,
-0.35,0.05,0.94,-4.48,5.397.77,
-0.37,0.05,0.93,-3.99,5.117.49,
-0.41,0.05,0.92,-3.92,4.697.00,
-0.42,0.04,0.92,-3.64,4.346.30,
-0.42,0.04,0.92,-2.8,3.995.81,
-0.42,0.03,0.92,-1.89,3.295.46,
-0.43,0.03,0.92,-1.33,2.244.97,
-0.44,0.02,0.91,-0.77,1.474.20,
-0.44,0.01,0.9,-0.63,0.423.78,
-0.44,0.02,0.9,-0.77,-0.493.71,
-0.43,0.02,0.91,-1.05,-0.983.22,
-0.41,0.02,0.92,-1.26,-1.192.66,
-0.4,0.01,0.93,-1.54,-0.772.59,
-0.39,0.01,0.94,-1.33,-0.351.68,
-0.38,0.01,0.94,-1.26,0.211.26,
-0.38,0.01,0.95,-0.63,0.910.70,
-0.38,0.01,0.94,0.28,1.68-0.14,
-0.39,0.01,0.93,1.26,2.45-1.12,
-0.39,0,0.92,2.45,3.01-1.68,
-0.39,0,0.91,4.2,3.22-2.52,
-0.4,0,0.9,6.72,3.36-3.08,
-0.41,-0.01,0.89,8.82,3.22-3.57,
-0.41,0,0.88,10.64,2.94-3.78,
-0.4,0.01,0.89,12.25,2.87-3.85,
-0.4,0,0.88,13.86,2.73-4.13,
-0.4,0,0.88,14.98,2.38-4.20,
-0.37,0.04,0.94,1.33,0.001.05,
-0.37,0.04,0.94,1.33,-0.070.98,
-0.37,0.04,0.94,1.54,0.000.56,
-0.37,0.04,0.94,1.54,-0.070.07,
-0.37,0.04,0.94,1.47,-0.070.28,
-0.37,0.04,0.94,1.54,0.140.07,
-0.37,0.04,0.94,1.26,0.070.00,
-0.37,0.04,0.94,1.05,0.140.14,
-0.37,0.04,0.94,0.98,-0.140.35,
-0.37,0.04,0.94,0.91,-0.350.35,
-0.37,0.04,0.94,0.91,-0.350.56,
-0.36,0.04,0.94,0.84,-0.490.56,
-0.36,0.04,0.93,0.77,-0.490.42,
-0.36,0.04,0.94,0.49,-0.700.63,
-0.36,0.04,0.94,0.56,-0.490.70,
-0.36,0.04,0.94,0.56,-0.490.70,
-0.36,0.03,0.94,0.49,-0.281.05,
-0.36,0.03,0.94,0.56,-0.281.12,
-0.36,0.04,0.94,0.63,-0.210.91,
-0.36,0.03,0.94,0.7,-0.141.19,
-0.36,0.03,0.94,0.7,-0.071.05,
-0.36,0.03,0.93,0.7,0.071.19,
-0.36,0.04,0.93,0.63,0.141.33,
-0.36,0.04,0.93,0.42,0.141.47,
-0.36,0.04,0.93,0.28,-0.071.54,
-0.36,0.05,0.92,-17.85,-0.211.75,
-0.36,0.04,0.9,-1.05,-0.771.68,
-0.36,0.03,0.92,-0.77,-1.401.89,
-0.36,0.02,0.94,-0.42,-1.681.96,
-0.37,0.02,0.96,-0.14,-1.402.24,
-0.38,0.01,0.96,0.35,-0.282.38,
-0.37,0.01,0.95,1.12,1.052.31,
-0.37,0.02,0.94,2.17,1.682.17,
-0.37,0.02,0.93,2.8,2.172.03,
-0.36,0.03,0.93,3.15,2.382.03,
-0.36,0.03,0.94,3.15,2.312.03,
-0.36,0.04,0.94,2.8,2.521.96,
-0.37,0.04,0.94,2.52,2.592.24,
-0.37,0.04,0.94,2.31,2.732.10,
-0.37,0.05,0.93,2.24,2.521.82,
-0.38,0.05,0.93,2.24,2.171.89,
-0.38,0.05,0.93,1.96,1.752.24,
-0.38,0.06,0.94,1.75,1.262.38,
-0.38,0.06,0.94,1.54,0.842.59,
-0.37,0.07,0.94,1.33,0.492.59,
-0.36,0.07,0.94,1.05,0.072.31,
-0.36,0.07,0.94,0.49,-0.212.59,
-0.36,0.07,0.94,0.14,-0.492.59,
-0.36,0.07,0.94,-0.14,-0.702.38,
-0.36,0.06,0.94,-0.49,-0.982.59,
-0.37,0.06,0.94,-0.84,-1.122.52,
-0.37,0.06,0.94,-1.4,-1.122.52,
-0.36,0.06,0.93,-1.68,-1.332.31,
-0.37,0.06,0.93,-1.96,-1.262.17,
-0.36,0.06,0.93,-2.24,-1.261.75,
-0.36,0.05,0.93,-2.45,-1.191.47,
-0.36,0.04,0.93,-2.73,-1.331.33,
-0.37,0.03,0.93,-2.73,-1.190.84,
-0.37,0.03,0.94,-2.59,-0.630.91,
-0.37,0.02,0.94,-2.03,0.000.91,
-0.37,0.02,0.94,-1.33,1.050.42,
-0.38,0.02,0.93,-0.84,1.890.21,
-0.38,0.01,0.92,-0.21,2.240.21,
-0.39,0.01,0.92,0.14,2.660.14,
-0.39,0.01,0.92,0.49,2.660.28,
-0.38,0.01,0.92,0.7,2.730.49,
-0.38,0.01,0.93,1.05,2.450.42,
-0.38,0.01,0.93,1.47,1.890.35,
-0.38,0.01,0.93,1.89,1.680.35,
-0.38,0.02,0.93,2.38,1.820.21,
-0.37,0.02,0.93,2.45,1.890.63,
-0.37,0.02,0.92,2.45,1.820.77,
-0.38,0.03,0.93,2.31,1.541.33,
-0.38,0.03,0.93,1.96,1.401.75,
-0.39,0.04,0.94,1.75,1.051.68,
-0.39,0.05,0.93,1.68,0.561.96,
-0.39,0.05,0.93,1.4,-0.212.03,
-0.39,0.06,0.93,1.12,-0.772.03,
-0.39,0.06,0.93,0.84,-1.401.89,
-0.39,0.06,0.93,0.42,-1.681.68,
-0.38,0.05,0.93,0.07,-2.031.68,
-0.37,0.05,0.93,0,-2.101.40,
-0.37,0.04,0.93,0.21,-1.961.12,
-0.37,0.04,0.93,0.28,-1.610.91,
-0.37,0.03,0.93,0.42,-1.540.70,
-0.37,0.03,0.94,0.63,-1.190.56,
-0.37,0.03,0.94,0.98,-1.050.28,
-0.37,0.02,0.94,1.19,-0.42-0.28,
-0.37,0.02,0.94,1.68,0.21-0.49,
-0.37,0.02,0.94,2.24,0.77-0.77,
-0.37,0.03,0.94,2.59,1.26-1.19,
-0.37,0.03,0.93,3.01,1.82-1.61,
-0.37,0.02,0.93,3.08,2.38-0.98,
-0.37,0.02,0.93,3.36,2.45-1.33,
-0.38,0.03,0.93,3.22,2.31-1.05,
-0.38,0.03,0.93,3.08,1.89-0.70,
-0.39,0.03,0.93,3.22,1.61-0.63,
-0.39,0.03,0.93,3.15,1.26-0.28,
-0.39,0.04,0.92,3.01,0.840.14,
-0.39,0.04,0.92,2.66,0.630.35,
-0.38,0.04,0.93,2.59,0.420.49,
-0.38,0.04,0.93,2.52,0.280.70,
-0.37,0.04,0.94,2.59,0.070.98,
-0.37,0.04,0.94,2.45,-0.141.19,
-0.37,0.04,0.94,2.45,-0.141.40,
-0.36,0.04,0.93,2.45,-0.071.33,
-0.37,0.04,0.93,2.38,-0.281.40,
-0.37,0.04,0.93,2.24,-0.491.82,
-0.37,0.04,0.93,2.1,-0.631.68,
-0.37,0.04,0.93,2.03,-0.631.82,
-0.38,0.04,0.93,2.03,-0.632.10,
-0.37,0.05,0.93,1.89,-0.561.96,
-0.38,0.05,0.93,1.82,-0.562.38,
-0.37,0.05,0.93,1.61,-0.492.66,
-0.37,0.05,0.93,1.4,-0.702.45,
-0.37,0.05,0.94,1.19,-0.632.59,
-0.37,0.05,0.94,1.05,-0.702.52,
-0.38,0.05,0.93,0.98,-0.912.45,
-0.38,0.05,0.93,0.77,-0.842.52,
-0.38,0.05,0.93,0.56,-0.772.87,
-0.38,0.05,0.93,0.63,-0.772.45,
-0.38,0.05,0.93,0.42,-0.842.31,
-0.38,0.05,0.93,0.49,-1.122.24,
-0.38,0.05,0.93,0.35,-1.121.96,
-0.38,0.04,0.93,0.49,-1.191.96,
-0.38,0.04,0.93,0.56,-1.261.68,
-0.38,0.04,0.93,0.7,-1.191.47,
-0.38,0.04,0.93,0.84,-1.261.19,
-0.38,0.04,0.93,0.84,-1.121.33,
-0.38,0.04,0.93,0.84,-1.120.98,
-0.38,0.04,0.93,0.98,-0.980.84,
-0.38,0.04,0.93,0.98,-0.840.70,
-0.38,0.04,0.93,1.12,-0.560.77,
-0.37,0.04,0.93,1.19,-0.630.49,
-0.37,0.04,0.93,1.12,-0.560.49,
-0.37,0.04,0.93,1.12,-0.630.56,
-0.38,0.04,0.93,1.05,-0.630.56,
-0.37,0.04,0.93,1.05,-0.490.49,
-0.37,0.04,0.93,1.26,-0.560.42,
-0.37,0.04,0.94,1.4,-0.210.42,
-0.37,0.04,0.93,1.12,-0.210.63,
-0.37,0.04,0.93,0.98,-0.140.77,
-0.37,0.04,0.93,1.12,0.070.91,
-0.37,0.04,0.93,1.12,0.000.98,
-0.37,0.04,0.93,0.98,-0.141.12,
-0.37,0.04,0.93,1.05,-0.211.47,
-0.37,0.04,0.93,1.4,-0.211.47,
-0.37,0.04,0.94,1.47,-0.071.68,
-0.37,0.04,0.93,1.61,-0.071.82,
-0.36,0.04,0.94,1.54,0.211.75,
-0.36,0.04,0.94,1.47,0.211.75,
-0.37,0.04,0.94,1.19,0.352.03,
-0.37,0.04,0.93,0.98,0.562.45,
-0.38,0.04,0.94,0.77,0.422.38,
-0.38,0.04,0.93,0.49,0.422.73,
-0.38,0.04,0.93,0.28,0.282.38,
-0.38,0.04,0.93,0.21,0.422.59,
-0.38,0.04,0.93,0.21,0.352.38,
-0.38,0.04,0.93,0.42,0.352.31,
-0.39,0.04,0.93,0.63,0.492.31,
-0.39,0.04,0.93,0.77,0.492.31,
-0.39,0.04,0.93,0.98,0.282.17,
-0.39,0.04,0.92,1.19,0.001.89,
-0.39,0.05,0.93,1.33,-0.211.68,
-0.39,0.05,0.93,1.54,-0.141.47,
-0.39,0.05,0.93,1.61,-0.351.26,
-0.38,0.05,0.92,1.61,-0.630.56,
-0.38,0.05,0.93,1.82,-0.770.35,
-0.38,0.06,0.93,1.75,-0.700.35,
-0.38,0.06,0.93,1.54,-0.77-17.71,
-0.38,0.06,0.93,1.33,-0.70-0.07,
-0.38,0.06,0.93,1.05,-0.63-0.07,
-0.38,0.05,0.93,0.77,-0.91-0.21,
-0.38,0.05,0.93,0.28,-1.12-0.07,
-0.38,0.05,0.93,0,-1.120.07,
-0.38,0.05,0.93,-0.07,-1.400.00,
-0.37,0.05,0.93,-0.28,-1.470.28,
-0.37,0.04,0.94,-0.35,-1.190.07,
-0.37,0.04,0.94,-0.28,-1.050.28,
-0.36,0.04,0.94,-0.28,-0.770.42,
-0.37,0.04,0.93,-0.21,-0.770.28,
-0.37,0.04,0.93,-0.21,-0.560.42,
-0.37,0.04,0.93,-0.14,-0.350.70,
-0.37,0.04,0.93,0.07,-0.210.63,
-0.37,0.04,0.93,-0.07,17.781.05,
-0.37,0.04,0.93,0.21,0.141.19,
-0.37,0.04,0.93,0.28,0.211.05,
-0.36,0.04,0.93,0.35,0.350.98,
-0.37,0.04,0.93,0.35,0.421.33,
-0.38,0.04,0.93,0.21,0.421.33,
-0.38,0.04,0.93,0.49,0.351.12,
-0.38,0.04,0.93,0.28,0.351.19,
-0.38,0.04,0.93,0.21,0.211.26,
-0.38,0.04,0.93,0.14,0.211.12,
-0.39,0.04,0.93,0.14,0.001.47,
-0.38,0.04,0.93,0.14,-0.141.40,
-0.38,0.04,0.93,0,-0.351.12,
-0.38,0.04,0.93,0.21,-0.421.47,
-0.38,0.04,0.93,0.35,-0.421.33,
-0.38,0.04,0.93,0.7,-0.351.12,
-0.38,0.04,0.93,0.84,-0.351.12,
-0.38,0.04,0.93,0.91,-0.350.98,
-0.38,0.04,0.93,1.12,-0.350.77,
-0.39,0.04,0.93,1.19,-0.560.56,
-0.38,0.04,0.93,1.26,-0.630.28,
-0.39,0.04,0.93,1.12,-0.630.28,
-0.38,0.04,0.93,1.12,-0.770.35,
-0.38,0.04,0.93,1.12,-0.630.21,
-0.38,0.04,0.93,1.12,-0.700.21,
-0.38,0.04,0.93,1.05,-0.770.35,
-0.38,0.04,0.93,0.98,-0.700.28,
-0.37,0.04,0.93,1.05,-0.700.14,
-0.37,0.04,0.93,0.91,-0.840.14,
-0.37,0.04,0.93,0.98,-0.840.07,
-0.37,0.04,0.93,1.12,-0.910.21,
-0.37,0.04,0.93,0.91,-0.770.77,
-0.37,0.04,0.94,0.98,-0.840.91,
-0.37,0.04,0.93,0.98,-0.770.91,
-0.37,0.04,0.93,0.84,-0.771.26,
-0.37,0.04,0.93,0.84,-0.841.33,
-0.37,0.04,0.93,0.7,-0.631.68,
-0.37,0.04,0.93,0.7,-0.561.61,
-0.37,0.04,0.93,0.7,-0.421.61,
-0.37,0.04,0.94,0.7,-0.281.54,
-0.37,0.04,0.93,0.77,0.001.75,
-0.37,0.04,0.93,0.77,-0.351.75,
-0.37,0.04,0.93,0.63,-0.491.89,
-0.38,0.04,0.93,0.56,-0.351.82,
-0.38,0.04,0.93,0.42,-0.491.54,
-0.38,0.04,0.93,0.35,-0.421.75,
-0.38,0.04,0.93,0.35,-0.561.68,
-0.38,0.04,0.93,0.28,-0.631.89,
-0.38,0.04,0.93,0.28,-0.701.47,
-0.38,0.04,0.93,0.35,-0.701.47,
-0.38,0.04,0.93,0.35,-0.561.40,
-0.37,0.04,0.93,0.42,-0.560.77,
-0.37,0.04,0.93,0.49,-0.490.98,
-0.38,0.04,0.93,0.49,-0.560.98,
-0.38,0.04,0.93,0.77,-0.350.91,
-0.38,0.04,0.93,0.91,-0.420.70,
-0.38,0.04,0.93,1.12,-0.490.63,
-0.38,0.04,0.93,1.19,-0.420.56,
-0.38,0.04,0.93,1.26,-0.490.42,
-0.38,0.04,0.93,1.26,-0.560.42,
-0.38,0.04,0.93,1.33,-0.490.28,
-0.38,0.04,0.94,1.33,-0.490.70,
-0.37,0.04,0.93,1.26,-0.560.63,
-0.37,0.04,0.93,1.12,-0.630.42,
-0.37,0.04,0.93,1.05,-0.700.91,
-0.37,0.04,0.94,0.77,-0.840.49,
-0.37,0.04,0.93,0.7,-0.980.63,
-0.37,0.04,0.93,0.77,-0.910.84,
-0.37,0.04,0.93,0.77,-0.841.05,
-0.37,0.04,0.93,0.77,-0.770.91,
-0.37,0.04,0.93,0.84,-0.771.12,
-0.37,0.04,0.93,0.91,-0.561.40,
-0.37,0.04,0.93,0.77,-0.770.98,
-0.37,0.04,0.93,0.84,-0.560.98,
-0.37,0.03,0.93,0.84,-0.561.12,
-0.37,0.04,0.93,1.05,-0.491.19,
-0.37,0.04,0.93,1.05,-0.491.26,
-0.37,0.04,0.93,1.26,-0.561.05,
-0.37,0.04,0.93,1.19,-0.351.33,
-0.37,0.04,0.93,1.05,-0.351.68,
-0.37,0.04,0.93,0.91,-0.421.54,
-0.37,0.04,0.93,0.91,-0.421.68,
-0.37,0.04,0.93,0.91,-0.351.68,
-0.37,0.04,0.93,0.84,-0.351.68,
-0.38,0.04,0.93,0.84,-0.351.54,
-0.37,0.04,0.93,0.98,-0.491.68,
-0.38,0.05,0.93,0.91,-0.421.26,
-0.38,0.04,0.93,0.77,-0.561.26,
-0.38,0.04,0.93,0.7,-0.421.26,
-0.38,0.04,0.93,0.63,-0.631.19,
-0.37,0.04,0.93,0.7,-0.351.12,
-0.37,0.04,0.93,0.7,-0.421.12,
-0.37,0.04,0.93,0.77,-0.420.91,
-0.37,0.04,0.93,0.84,-0.420.91,
-0.37,0.04,0.93,0.91,-0.280.77,
-0.37,0.04,0.93,0.84,-0.350.70,
-0.37,0.04,0.93,0.91,-0.210.70,
-0.37,0.04,0.93,1.05,-0.350.63,
-0.37,0.04,0.93,0.98,-0.420.91,
-0.37,0.04,0.93,0.91,-0.280.70,
-0.37,0.04,0.94,0.91,-0.560.77,
-0.37,0.04,0.94,0.91,-0.281.26,
-0.37,0.04,0.93,0.91,-0.490.91,
-0.37,0.04,0.93,0.98,-0.280.49,
-0.37,0.04,0.93,0.91,-0.280.91,
-0.37,0.04,0.93,0.98,-0.351.12,
-0.37,0.04,0.93,0.98,-0.351.19,
-0.38,0.04,0.93,0.91,-0.281.47,
-0.37,0.04,0.93,0.91,-0.211.33,
-0.37,0.04,0.93,0.84,-0.281.40,
-0.37,0.04,0.93,0.84,-0.491.40,
-0.37,0.04,0.93,0.84,-0.211.33,
-0.37,0.04,0.93,0.7,-0.281.33,
-0.37,0.04,0.93,0.77,-0.281.26,
-0.37,0.04,0.93,0.77,-0.281.19,
-0.37,0.04,0.93,0.77,-0.351.19,
-0.37,0.04,0.93,0.7,-0.281.19,
-0.37,0.04,0.93,0.7,-0.280.98,
-0.37,0.04,0.93,0.77,-0.281.05,
-0.38,0.04,0.93,0.84,-0.281.05,
-0.38,0.04,0.93,0.63,-0.280.91,
-0.38,0.04,0.93,0.63,-0.421.05,
-0.37,0.04,0.93,0.63,-0.420.98,
-0.38,0.04,0.93,0.63,-0.491.19,
-0.38,0.04,0.93,0.77,-0.280.98,
-0.38,0.04,0.93,0.91,-0.211.05,
-0.38,0.04,0.93,0.77,-0.141.05,
-0.38,0.04,0.93,0.91,-0.210.98,
-0.38,0.04,0.93,0.91,-0.211.26,
-0.38,0.04,0.93,0.84,-0.281.26,
-0.38,0.04,0.93,0.77,-0.421.19,
-0.38,0.04,0.93,0.77,-0.771.19,
-0.38,0.04,0.93,0.63,-0.841.05,
-0.37,0.04,0.93,0.56,-0.911.26,
-0.37,0.04,0.93,0.42,-0.841.19,
-0.37,0.04,0.93,0.7,-0.770.98,
-0.37,0.04,0.93,0.56,-0.630.84,
-0.37,0.04,0.93,0.63,-0.560.91,
-0.37,0.04,0.93,0.77,-0.490.91,
-0.37,0.04,0.93,0.91,-0.420.77,
-0.37,0.04,0.93,0.98,-0.490.91,
-0.37,0.04,0.93,0.98,-0.421.12,
-0.37,0.04,0.93,1.05,-0.280.84,
-0.37,0.04,0.93,1.12,-0.210.77,
-0.37,0.04,0.93,1.05,-0.210.98,
-0.37,0.04,0.94,1.05,-0.351.12,
-0.38,0.04,0.93,0.98,-0.491.26,
-0.38,0.04,0.93,0.77,-0.281.40,
-0.37,0.04,0.93,0.63,-0.561.61,
-0.37,0.04,0.93,0.49,-0.561.68,
-0.37,0.04,0.93,0.35,-0.631.61,
-0.37,0.04,0.93,0.42,-0.911.61,
-0.37,0.04,0.93,0.21,-0.841.96,
-0.37,0.04,0.93,0.28,-0.912.17,
-0.37,0.04,0.93,0.42,-0.982.52,
-0.37,0.04,0.93,0.42,-0.982.52,
-0.37,0.04,0.93,0.28,-0.982.52,
-0.37,0.04,0.93,0.21,-0.982.59,
-0.37,0.04,0.93,0.14,-1.192.73,
-0.37,0.03,0.93,0.21,-1.262.66,
-0.37,0.03,0.93,0.21,-1.262.45,
-0.37,0.04,0.93,0.42,-0.842.38,
-0.37,0.04,0.93,0.49,-0.771.89,
-0.37,0.04,0.93,0.77,-0.491.47,
-0.37,0.04,0.94,0.91,-0.071.33,
-0.37,0.04,0.94,1.12,0.420.98,
-0.37,0.04,0.93,1.47,0.700.14,
-0.37,0.04,0.93,1.68,0.840.07,
-0.37,0.04,0.93,2.1,0.98-0.28,
-0.38,0.04,0.93,2.24,0.98-0.42,
-0.38,0.04,0.93,2.17,0.91-0.49,
-0.38,0.04,0.94,2.1,0.77-0.14,
-0.38,0.04,0.94,1.96,0.350.00,
-0.38,0.04,0.93,1.82,-0.070.49,
-0.38,0.04,0.93,1.68,-0.210.70,
-0.37,0.04,0.93,1.68,-0.700.49,
-0.37,0.04,0.94,1.4,-0.910.70,
-0.37,0.04,0.94,1.12,-0.911.33,
-0.37,0.04,0.94,0.98,-0.841.26,
-0.37,0.04,0.93,0.91,-0.771.54,
-0.36,0.04,0.93,0.91,-0.841.75,
-0.36,0.04,0.93,0.98,-0.561.68,
-0.36,0.04,0.93,1.12,-0.492.03,
-0.36,0.04,0.94,1.19,-0.421.61,
-0.37,0.04,0.94,1.05,-0.141.75,
-0.37,0.04,0.94,0.98,-0.141.68,
-0.37,0.04,0.94,1.05,-0.141.68,
-0.5,0.04,0.94,0.91,0.001.26,
-0.38,0.05,0.94,0.84,0.001.54,
-0.38,0.04,0.94,0.7,0.071.05,
-0.37,0.05,0.94,0.63,0.210.91,
-0.37,0.05,0.94,0.56,0.070.77,
-0.38,0.05,0.93,0.63,0.070.35,
-0.38,0.05,0.93,0.49,0.000.28,
-0.38,0.04,0.93,0.56,0.000.63,
-0.38,0.04,0.93,0.49,0.070.35,
-0.38,0.04,0.93,0.49,0.280.28,
-0.38,0.04,0.93,0.7,0.280.00,
-0.38,0.04,0.93,0.77,0.140.00,
-0.38,0.04,0.93,0.98,0.00-0.21,
-0.38,0.04,0.93,1.12,-0.07-0.07,
-0.38,0.04,0.93,1.19,-0.14-0.28,
-0.38,0.03,0.93,1.26,-0.140.14,
-0.37,0.03,0.93,1.47,-0.140.14,
-0.37,0.04,0.93,1.54,-0.140.28,
-0.37,0.04,0.93,1.68,-0.280.35,
-0.37,0.04,0.93,1.82,-0.140.49,
-0.37,0.04,0.93,1.75,-0.140.49,
-0.37,0.04,0.93,1.61,-0.140.91,
-0.37,0.04,0.93,1.47,-0.140.63,
-0.37,0.04,0.93,1.33,-0.070.84,
-0.37,0.04,0.93,1.26,0.070.91,
-0.37,0.05,0.93,1.12,-0.070.91,
-0.37,0.04,0.93,0.91,-0.210.77,
-0.37,0.05,0.93,0.77,-0.140.77,
-0.37,0.05,0.93,0.56,-0.210.98,
-0.37,0.04,0.93,0.42,-0.210.84,
-0.37,0.04,0.93,0.49,-0.140.77,
-0.37,0.04,0.94,0.56,0.000.84,
-0.37,0.04,0.94,0.7,0.210.63,
-0.37,0.04,0.94,1.05,0.350.35,
-0.37,0.03,0.93,1.26,0.350.84,
-0.38,0.03,0.93,1.47,0.560.56,
-0.37,0.03,0.92,1.68,0.560.70,
-0.38,0.04,0.93,1.68,0.560.84,
-0.38,0.03,0.92,1.61,0.700.91,
-0.38,0.04,0.93,1.54,0.561.05,
-0.38,0.04,0.92,1.47,0.561.33,
-0.38,0.04,0.93,1.26,0.071.54,
-0.38,0.04,0.93,1.33,-0.211.89,
-0.38,0.04,0.94,1.47,-0.421.89,
-0.38,0.04,0.94,1.61,-0.561.61,
-0.37,0.04,0.94,1.54,-0.421.54,
-0.37,0.04,0.93,1.75,-0.351.47,
-0.37,0.04,0.93,1.82,0.001.61,
-0.38,0.04,0.93,1.61,-0.071.61,
-0.38,0.04,0.93,1.68,0.071.54,
-0.39,0.04,0.93,1.61,-0.071.61,
-0.39,0.05,0.93,1.68,-0.281.47,
-0.39,0.05,0.93,1.75,-0.421.40,
-0.39,0.05,0.93,1.68,-0.491.40,
-0.38,0.05,0.93,1.47,-0.561.40,
-0.38,0.05,0.93,1.19,-0.561.19,
-0.38,0.05,0.94,1.19,-0.561.19,
-0.38,0.05,0.93,1.12,-0.420.98,
-0.38,0.05,0.93,0.84,-0.350.70,
-0.38,0.05,0.93,0.91,-0.210.70,
-0.38,0.05,0.93,0.98,-0.210.70,
-0.38,0.04,0.94,1.12,-0.490.49,
-0.38,0.04,0.94,1.12,-0.630.70,
-0.38,0.04,0.94,1.19,-0.560.56,
-0.38,0.04,0.93,1.26,-0.770.77,
-0.38,0.04,0.93,1.26,-0.910.70,
-0.38,0.04,0.92,1.26,-0.910.56,
-0.38,0.04,0.92,1.4,-0.910.77,
-0.37,0.04,0.93,1.54,-0.840.49,
-0.38,0.04,0.93,1.68,-0.770.42,
-0.38,0.04,0.93,1.89,-0.770.84,
-0.38,0.04,0.93,1.96,-0.700.70,
-0.38,0.04,0.93,2.17,-0.490.56,
-0.38,0.04,0.93,2.24,-0.210.98,
-0.37,0.04,0.94,2.38,-0.350.98,
-0.37,0.04,0.93,2.1,-0.351.12,
-0.37,0.05,0.94,1.96,-0.281.26,
-0.37,0.05,0.94,1.96,-0.141.26,
-0.37,0.05,0.94,1.47,-0.141.19,
-0.37,0.05,0.94,1.33,-0.071.12,
-0.37,0.05,0.93,1.12,-0.281.19,
-0.37,0.05,0.93,1.12,-0.141.26,
-0.37,0.05,0.93,0.98,0.001.47,
-0.37,0.05,0.94,1.19,-0.071.26,
-0.37,0.05,0.93,1.26,0.281.05,
-0.37,0.05,0.93,1.26,0.281.12,
-0.37,0.05,0.93,1.47,0.491.05,
-0.37,0.05,0.94,1.54,0.560.84,
-0.37,0.06,0.94,1.54,0.770.84,
-0.37,0.06,0.93,1.47,0.630.70,
-0.38,0.06,0.93,1.33,0.420.63,
-0.38,0.05,0.93,0.98,0.350.84,
-0.38,0.05,0.93,0.63,0.001.05,
-0.38,0.05,0.93,0.49,-0.281.12,
-0.38,0.05,0.93,0.28,-0.351.47,
-0.39,0.04,0.93,0.14,-0.281.47,
-0.38,0.04,0.93,0.14,-0.421.40,
-0.38,0.04,0.93,0.07,-0.281.33,
-0.38,0.04,0.93,0.07,-0.211.40,
-0.37,0.04,0.93,0.35,-0.141.26,
-0.37,0.04,0.93,0.56,0.210.84,
-0.37,0.04,0.93,0.77,0.421.05,
-0.37,0.04,0.93,0.98,0.700.98,
-0.37,0.04,0.93,1.12,0.910.63,
-0.37,0.04,0.93,1.47,0.980.77,
-0.38,0.04,0.93,1.75,0.980.42,
-0.38,0.04,0.93,1.89,1.120.70,
-0.38,0.04,0.93,2.1,1.120.49,
-0.39,0.05,0.93,2.03,1.050.70,
-0.39,0.05,0.93,1.96,0.910.35,
-0.39,0.05,0.92,1.89,0.980.42,
-0.38,0.05,0.92,1.89,0.700.28,
-0.38,0.05,0.93,1.61,0.490.07,
-0.38,0.05,0.93,1.4,0.420.07,
-0.38,0.05,0.93,1.4,0.630.07,
-0.38,0.05,0.93,1.54,0.70-0.21,
-0.38,0.04,0.93,1.4,0.42-0.21,
-0.38,0.05,0.93,1.26,0.350.00,
-0.38,0.04,0.94,1.4,0.280.00,
-0.39,0.04,0.94,1.54,0.420.07,
-0.39,0.05,0.93,1.61,0.350.28,
-0.39,0.04,0.93,1.68,0.210.21,
-0.39,0.05,0.93,1.68,0.140.49,
-0.39,0.05,0.92,1.75,0.070.35,
-0.39,0.05,0.93,1.68,-0.070.14,
-0.39,0.05,0.93,1.68,-0.140.21,
-0.39,0.04,0.93,1.68,0.070.21,
-0.38,0.04,0.92,1.61,0.280.28,
-0.38,0.04,0.92,1.68,0.000.49,
-0.38,0.04,0.93,1.82,0.000.77,
-0.38,0.04,0.93,1.61,0.140.70,
-0.38,0.04,0.93,1.61,0.140.77,
-0.38,0.04,0.93,1.54,0.280.91,
-0.38,0.05,0.93,1.54,0.560.42,
-0.38,0.05,0.93,1.47,0.491.05,
-0.38,0.05,0.93,1.47,0.560.84,
-0.37,0.05,0.93,1.26,0.420.70,
-0.38,0.05,0.93,1.19,0.350.77,
-0.38,0.05,0.93,1.19,0.350.70,
-0.38,0.05,0.93,1.12,0.350.56,
-0.38,0.05,0.93,1.26,0.280.91,
-0.38,0.05,0.93,1.33,0.280.63,
-0.38,0.05,0.93,1.47,0.280.56,
-0.39,0.05,0.93,1.54,0.210.49,
-0.39,0.05,0.92,1.33,0.140.70,
-0.38,0.05,0.92,1.26,0.210.84,
-0.38,0.05,0.92,1.05,0.140.84,
-0.39,0.06,0.93,0.84,0.070.63,
-0.39,0.05,0.92,0.56,0.000.77,
-0.39,0.05,0.93,0.42,-0.280.77,
-0.39,0.05,0.93,0.21,-0.140.84,
-0.38,0.05,0.92,0.07,-0.210.98,
-0.38,0.04,0.92,0.21,-0.280.77,
-0.38,0.04,0.92,0.35,-0.140.56,
-0.38,0.04,0.93,0.56,0.140.84,
-0.37,0.04,0.93,0.77,0.280.70,
-0.37,0.04,0.93,1.05,0.490.56,
-0.38,0.04,0.93,1.33,0.560.70,
-0.38,0.04,0.93,1.4,0.840.56,
-0.38,0.04,0.93,1.4,1.050.70,
-0.38,0.04,0.92,1.26,1.120.91,
-0.38,0.05,0.93,1.26,0.910.91,
-0.39,0.05,0.93,1.12,0.981.05,
-0.39,0.05,0.93,1.19,0.700.77,
-0.39,0.05,0.93,0.91,0.771.19,
-0.38,0.05,0.93,0.84,0.491.26,
-0.39,0.05,0.93,0.77,0.491.19,
-0.38,0.05,0.93,0.77,0.561.33,
-0.38,0.05,0.93,0.7,0.491.26,
-0.39,0.05,0.93,0.49,0.350.98,
-0.39,0.05,0.93,0.56,0.140.98,
-0.39,0.05,0.93,0.49,-0.071.12,
-0.39,0.05,0.93,0.49,0.140.98,
-0.39,0.05,0.92,0.7,0.001.26,
-0.39,0.04,0.92,0.7,-0.141.54,
-0.39,0.04,0.93,0.77,-0.140.84,
-0.39,0.04,0.93,0.7,-0.281.33,
-0.39,0.04,0.93,0.77,-0.281.12,
-0.39,0.04,0.93,0.84,-0.281.26,
-0.39,0.05,0.93,0.91,-0.071.47,
-0.39,0.05,0.93,0.77,0.001.26,
-0.39,0.05,0.92,0.77,-0.141.12,
-0.38,0.05,0.93,0.7,-0.071.12,
-0.39,0.05,0.93,0.77,-0.280.77,
-0.39,0.04,0.93,0.77,-0.140.91,
-0.39,0.04,0.92,0.84,-0.351.19,
-0.39,0.04,0.93,0.98,-0.211.33,
-0.39,0.04,0.93,1.05,-0.211.19,
-0.38,0.05,0.92,1.12,-0.281.33,
-0.39,0.05,0.92,1.26,-0.491.19,
-0.39,0.05,0.93,1.19,-0.421.19,
-0.39,0.04,0.93,1.33,-0.491.26,
-0.39,0.05,0.93,1.19,-0.491.33,
-0.39,0.05,0.93,1.4,-0.420.84,
-0.39,0.05,0.93,1.19,-0.491.33,
-0.39,0.05,0.93,1.19,-0.491.12,
-0.38,0.05,0.93,1.12,-0.491.05,
-0.38,0.05,0.93,1.05,-0.631.05,
-0.39,0.05,0.93,1.12,-0.491.19,
-0.39,0.05,0.93,0.98,-0.420.70,
-0.39,0.05,0.93,1.05,-0.281.12,
-0.38,0.05,0.93,1.12,-0.491.26,
-0.38,0.05,0.93,0.91,-0.421.12,
-0.38,0.05,0.93,0.84,-0.421.19,
-0.38,0.05,0.93,1.05,-0.490.91,
-0.38,0.05,0.93,0.91,-0.350.84,
-0.38,0.05,0.93,0.91,-0.491.26,
-0.39,0.05,0.93,0.91,-0.210.84,
-0.39,0.04,0.93,0.98,-0.350.98,
-0.39,0.05,0.93,0.84,-0.491.05,
-0.39,0.05,0.93,0.98,-0.420.98,
-0.39,0.05,0.93,0.84,-0.421.05,
-0.39,0.05,0.92,0.7,-0.421.12,
-0.39,0.05,0.93,0.7,-0.631.26,
-0.39,0.05,0.93,0.63,-0.491.19,
-0.39,0.05,0.93,0.7,-0.351.26,
-0.39,0.05,0.92,0.77,-0.211.26,
-0.39,0.05,0.92,0.77,-0.351.47,
-0.39,0.05,0.92,0.7,-0.421.54,
-0.38,0.05,0.92,0.7,-0.281.26,
-0.39,0.05,0.93,0.77,-0.351.33,
-0.39,0.05,0.93,0.84,-0.421.40,
-0.39,0.05,0.93,0.77,-0.491.19,
-0.39,0.05,0.93,0.77,-0.351.12,
-0.39,0.05,0.92,0.84,-0.421.12,
-0.39,0.05,0.92,0.84,-0.561.19,
-0.39,0.05,0.92,0.84,-0.560.98,
-0.39,0.05,0.93,0.77,-0.631.19,
-0.38,0.05,0.93,0.84,-0.701.19,
-0.38,0.05,0.93,0.98,-0.560.56,
-0.38,0.05,0.92,0.98,-0.560.70,
-0.39,0.05,0.93,0.91,-0.560.49,
-0.39,0.05,0.93,0.98,-0.350.56,
-0.38,0.05,0.93,0.84,-0.070.91,
-0.39,0.05,0.92,0.91,-0.280.70,
-0.38,0.05,0.92,0.91,-0.490.77,
-0.38,0.05,0.93,0.84,-0.560.77,
-0.38,0.05,0.93,0.91,-0.700.84,
-0.39,0.05,0.93,0.84,-0.490.70,
-0.38,0.05,0.93,0.84,-0.350.77,
-0.38,0.05,0.93,0.91,-0.420.77,
-0.38,0.05,0.93,0.84,-0.140.84,
-0.38,0.05,0.93,0.91,-0.280.70,
-0.39,0.05,0.93,0.7,-0.421.05,
-0.39,0.05,0.93,0.63,-0.490.91,
-0.39,0.04,0.92,0.49,-0.490.77,
-0.38,0.05,0.92,0.56,-0.421.26,
-0.38,0.04,0.92,0.63,-0.421.19,
-0.38,0.04,0.93,0.56,-0.351.40,
-0.38,0.04,0.93,0.49,-0.351.47,
-0.39,0.04,0.93,0.56,-0.141.40,
-0.38,0.04,0.93,0.84,-0.071.82,
-0.39,0.04,0.93,0.98,0.001.54,
-0.39,0.04,0.93,1.12,0.071.40,
-0.39,0.05,0.93,1.12,0.001.40,
-0.39,0.05,0.93,1.19,-0.071.26,
-0.39,0.05,0.93,1.19,0.000.98,
-0.39,0.05,0.93,1.19,-0.211.68,
-0.39,0.05,0.93,0.91,-0.351.40,
-0.39,0.05,0.93,0.77,-0.281.40,
-0.39,0.05,0.92,0.63,-0.211.33,
-0.39,0.05,0.93,0.77,-0.701.33,
-0.39,0.05,0.93,0.77,-0.630.84,
-0.39,0.05,0.93,0.77,-0.770.91,
-0.39,0.05,0.93,0.91,-0.770.98,
-0.39,0.05,0.93,0.91,-0.840.56,
-0.39,0.04,0.93,0.98,-0.910.77,
-0.39,0.05,0.92,0.91,-0.840.84,
-0.38,0.05,0.93,0.77,-0.700.70,
-0.38,0.05,0.93,0.7,-0.630.63,
-0.38,0.04,0.93,0.91,-0.490.77,
-0.38,0.04,0.93,1.05,-0.420.49,
-0.38,0.05,0.93,0.91,-0.210.63,
-0.39,0.05,0.93,0.98,-0.070.98,
-0.38,0.05,0.93,0.91,0.140.70,
-0.38,0.05,0.92,0.98,0.000.70,
-0.38,0.05,0.93,0.84,0.000.91,
-0.38,0.05,0.93,0.7,-0.140.91,
-0.38,0.05,0.93,0.49,-0.210.98,
-0.39,0.05,0.92,0.42,-0.141.12,
-0.38,0.05,0.92,0.21,-0.141.12,
-0.39,0.05,0.92,0.14,-0.071.19,
-0.39,0.04,0.92,0.21,-0.211.26,
-0.39,0.04,0.92,0.14,-0.211.26,
-0.38,0.04,0.93,0.28,-0.141.40,
-0.39,0.04,0.93,0.21,-0.421.33,
-0.39,0.04,0.93,0.21,-0.141.33,
-0.39,0.04,0.93,0.28,-0.421.75,
-0.39,0.04,0.93,0.21,-0.631.96,
-0.39,0.04,0.92,0.14,-0.702.10,
-0.39,0.04,0.92,0.28,-0.912.38,
-0.38,0.04,0.93,0.28,-1.332.38,
-0.39,0.04,0.93,0.14,-1.262.10,
-0.39,0.04,0.93,0.14,-1.262.45,
-0.39,0.04,0.93,0.28,-1.332.45,
-0.39,0.04,0.92,0.28,-1.402.52,
-0.39,0.04,0.93,0.14,-1.472.66,
-0.39,0.04,0.93,0.07,-1.612.87,
-0.39,0.05,0.92,0.07,-1.612.66,
-0.39,0.04,0.92,0.21,-1.892.73,
-0.39,0.04,0.93,0.21,-2.032.66,
-0.39,0.04,0.93,0.35,-1.682.38,
-0.39,0.04,0.92,0.56,-1.471.96,
-0.39,0.05,0.92,0.63,-1.681.96,
-0.39,0.05,0.92,0.42,-1.681.54,
-0.38,0.05,0.93,0.56,-1.681.40,
-0.38,0.04,0.93,0.56,-1.611.33,
-0.38,0.04,0.93,0.49,-1.611.40,
-0.38,0.04,0.93,0.21,-1.611.26,
-0.38,0.04,0.93,0.28,-1.471.33,
-0.39,0.04,0.93,0.21,-1.471.33,
-0.39,0.04,0.93,0.14,-1.541.54,
-0.39,0.04,0.93,0.49,-1.331.47,
-0.38,0.04,0.92,0.63,-1.541.19,
-0.38,0.04,0.92,0.84,-1.751.54,
-0.37,0.05,0.93,0.84,-1.961.75,
-0.38,0.05,0.93,0.56,-2.032.03,
-0.39,0.04,0.93,0.63,-1.822.17,
-0.38,0.04,0.93,1.26,-1.682.38,
-0.38,0.05,0.93,1.54,-1.752.87,
-0.38,0.04,0.92,1.26,-1.753.64,
-0.38,0.05,0.92,1.12,-2.243.99,
-0.37,0.05,0.91,0.84,-2.804.41,
-0.37,0.05,0.92,0,-3.155.32,
-0.36,0.05,0.93,-0.77,-3.296.16,
-0.36,0.06,0.93,-1.82,-3.296.72,
-0.37,0.06,0.92,-2.94,-4.067.28,
-0.39,0.05,0.9,-4.48,-5.188.26,
-0.39,0.04,0.89,-5.18,-6.379.10,
-0.39,0.02,0.9,-5.74,-7.9110.22,
-0.39,0.01,0.91,-6.09,-8.9611.06,
-0.39,0.01,0.93,-6.02,-9.4511.55,
-0.38,0,0.93,-5.74,-9.8012.46,
-0.36,0,0.95,-5.67,-9.5212.88,
-0.33,-0.01,0.96,-5.04,-8.4713.02,
-0.32,0,0.96,-4.2,-6.0913.16,
-0.29,-0.01,0.96,-2.66,-3.7113.16,
-0.29,-0.01,0.98,-2.31,-0.4213.02,
-0.31,-0.03,0.99,-1.26,3.9213.58,
-0.33,-0.05,1.01,2.73,11.2015.54,
-0.33,-0.02,1,6.09,17.5015.05,
-0.35,0.04,0.93,5.25,17.4312.11,
-0.38,0.02,0.88,3.15,13.3011.41,
-0.41,-0.01,0.91,4.13,14.2813.16,
-0.43,0.01,0.98,7.7,22.7515.82,
-0.43,0.07,0.99,10.85,27.0916.10,
-0.43,0.19,0.88,3.29,16.8011.34,
-0.43,0.11,0.87,0.35,6.799.10,
-0.44,0.09,0.91,0.7,4.978.47,
-0.44,0.09,0.95,1.19,7.077.28,
-0.45,0.07,0.95,1.4,8.408.12,
-0.43,0.09,0.95,0.63,6.937.98,
-0.42,0.1,0.94,-1.33,4.836.93,
-0.42,0.08,0.94,-1.05,4.486.30,
-0.42,0.07,0.93,0.35,5.395.32,
-0.41,0.06,0.93,2.24,5.464.76,
-0.44,0.09,0.9,1.75,2.524.13,
-0.45,0.08,0.9,1.19,0.072.94,
-0.44,0.07,0.89,1.47,-0.841.54,
-0.43,0.06,0.89,3.15,-2.240.91,
-0.43,0.07,0.91,3.5,-3.150.42,
-0.42,0.08,0.92,3.64,-2.31-0.21,
-0.4,0.09,0.92,3.5,-1.05-1.33,
-0.39,0.09,0.92,4.34,-1.75-1.05,
-0.37,0.09,0.93,4.2,-2.52-1.12,
-0.37,0.09,0.95,3.99,-1.61-1.54,
-0.37,0.09,0.94,4.2,-0.49-2.17,
-0.37,0.1,0.92,4.13,0.42-2.87,
-0.37,0.1,0.9,3.78,0.21-3.78,
-0.38,0.1,0.89,3.64,-0.42-4.13,
-0.4,0.1,0.9,3.99,-0.70-4.34,
-0.41,0.1,0.91,4.41,-1.47-4.90,
-0.41,0.1,0.92,4.13,-2.66-5.32,
-0.4,0.09,0.93,4.06,-3.15-5.60,
-0.39,0.09,0.94,4.13,-3.22-5.81,
-0.38,0.09,0.94,3.64,-2.31-5.95,
-0.25,0.1,0.93,3.01,-2.10-6.79,
-0.37,0.08,0.92,2.45,-2.45-6.72,
-0.37,0.07,0.93,2.38,-2.52-6.51,
-0.36,0.07,0.94,1.54,-2.31-6.51,
-0.36,0.06,0.94,0.77,-1.96-6.37,
-0.35,0.05,0.93,0.63,-1.33-6.51,
-0.35,0.05,0.93,0.42,-0.91-6.37,
-0.36,0.05,0.92,0.77,-0.56-6.16,
-0.36,0.04,0.92,1.19,-0.35-5.74,
-0.36,0.04,0.93,1.82,-0.49-5.46,
-0.36,0.03,0.93,1.82,-0.07-4.90,
-0.36,0.03,0.93,2.31,1.40-3.64,
-0.37,0.03,0.93,2.87,2.45-3.01,
-0.37,0.04,0.92,2.8,2.45-1.89,
-0.37,0.05,0.91,2.45,2.45-1.61,
-0.38,0.04,0.91,2.31,2.45-1.19,
-0.38,0.04,0.92,2.73,3.78-0.14,
-0.38,0.04,0.94,3.22,5.320.42,
-0.38,0.06,0.94,3.01,5.740.70,
-0.37,0.07,0.93,1.96,5.460.49,
-0.37,0.06,0.92,1.54,4.200.21,
-0.4,0.05,0.93,1.61,3.010.42,
-0.43,0.05,0.93,0.84,3.080.84,
-0.45,0.06,0.92,0.49,3.501.19,
-0.44,0.06,0.92,0.84,2.521.75,
-0.43,0.07,0.93,0.7,1.331.61,
-0.41,0.08,0.92,0.42,2.031.47,
-0.39,0.08,0.91,0.7,2.521.54,
-0.37,0.08,0.9,0.77,1.821.89,
-0.37,0.08,0.91,-0.07,0.631.96,
-0.39,0.08,0.92,-0.77,0.002.24,
-0.4,0.08,0.91,-0.7,-0.142.24,
-0.39,0.08,0.9,-0.28,-0.561.89,
-0.38,0.08,0.9,0.14,-1.681.75,
-0.39,0.07,0.91,0.28,-2.591.33,
-0.39,0.07,0.91,0.35,-3.011.12,
-0.4,0.06,0.92,0.14,-3.501.19,
-0.41,0.05,0.92,0.49,-4.271.19,
-0.41,0.05,0.93,0.49,-4.341.12,
-0.4,0.05,0.92,0.14,-3.711.54,
-0.39,0.05,0.92,-0.28,-2.242.03,
-0.39,0.05,0.93,-0.49,-1.402.03,
-0.39,0.05,0.93,-0.7,-0.842.17,
-0.4,0.05,0.93,-1.19,-0.352.52,
-0.4,0.05,0.93,-1.61,0.212.24,
-0.4,0.05,0.93,-1.82,0.632.73,
-0.41,0.04,0.92,-1.82,0.773.01,
-0.42,0.05,0.92,-1.89,0.843.01,
-0.42,0.04,0.92,-1.33,1.752.52,
-0.41,0.05,0.91,-0.49,2.382.45,
-0.4,0.05,0.92,0.14,1.892.10,
-0.4,0.05,0.92,0.56,2.101.75,
-0.41,0.05,0.92,1.05,2.801.61,
-0.41,0.05,0.92,1.4,3.431.47,
-0.4,0.06,0.92,1.82,3.151.54,
-0.41,0.06,0.91,1.61,2.241.19,
-0.42,0.06,0.91,1.33,1.961.05,
-0.42,0.06,0.91,1.61,2.171.12,
-0.41,0.06,0.91,1.61,1.680.56,
-0.41,0.06,0.91,1.4,0.840.84,
-0.4,0.06,0.92,1.19,1.190.70,
-0.4,0.06,0.92,1.26,1.540.70,
-0.4,0.06,0.92,1.26,2.030.84,
-0.4,0.07,0.92,1.19,2.520.56,
-0.41,0.07,0.92,1.26,2.660.00,
-0.41,0.07,0.91,1.05,2.800.07,
-0.42,0.06,0.91,1.05,2.10-0.21,
-0.43,0.06,0.92,0.98,1.68-0.98,
-0.44,0.06,0.92,1.12,2.24-1.05,
-0.44,0.06,0.91,1.89,2.87-1.61,
-0.42,0.06,0.91,2.17,2.66-1.82,
-0.41,0.06,0.91,2.38,1.68-2.59,
-0.41,0.06,0.91,2.31,1.47-2.52,
-0.4,0.06,0.91,2.38,1.89-2.80,
-0.4,0.06,0.92,2.66,1.96-2.24,
-0.4,0.06,0.92,2.38,1.75-2.03,
-0.41,0.06,0.91,1.68,0.91-2.03,
-0.42,0.06,0.91,0.7,0.21-0.98,
-0.43,0.05,0.91,0.49,-0.21-1.47,
-0.42,0.05,0.91,0.7,0.49-1.54,
-0.41,0.06,0.91,1.12,1.26-1.75,
-0.39,0.06,0.91,1.05,1.89-2.66,
-0.39,0.06,0.9,0.77,1.96-2.87,
-0.39,0.05,0.9,0.98,2.03-2.87,
-0.41,0.04,0.9,2.03,2.94-3.22,
-0.41,0.04,0.9,3.22,3.36-3.99,
-0.42,0.04,0.9,4.48,3.22-4.48,
-0.43,0.05,0.91,5.6,3.64-5.46,
-0.44,0.05,0.92,6.23,3.78-6.44,
-0.43,0.06,0.91,6.16,3.01-6.86,
-0.43,0.07,0.9,5.53,1.61-7.70,
-0.43,0.07,0.91,5.53,1.05-8.19,
-0.42,0.08,0.92,6.44,1.47-8.96,
-0.42,0.08,0.93,6.72,1.26-8.89,
-0.42,0.07,0.94,5.95,1.26-8.82,
-0.43,0.08,0.92,5.18,1.12-8.40,
-0.44,0.07,0.92,4.62,0.77-8.33,
-0.43,0.07,0.92,4.06,0.77-7.84,
-0.43,0.08,0.91,3.85,1.26-7.98,
-0.41,0.09,0.9,3.71,0.84-8.47,
-0.4,0.08,0.9,2.87,-0.70-8.75,
-0.39,0.08,0.92,2.38,-1.75-7.91,
-0.4,0.08,0.93,1.75,-1.68-7.21,
-0.4,0.08,0.92,1.26,-1.75-6.86,
-0.4,0.07,0.91,0.7,-2.59-6.51,
-0.4,0.07,0.91,0.21,-4.48-5.46,
-0.39,0.06,0.93,-0.21,-5.11-4.62,
-0.39,0.06,0.93,-0.42,-4.83-3.85,
-0.39,0.07,0.93,-0.77,-4.62-3.36,
-0.38,0.06,0.93,-1.26,-4.76-2.80,
-0.37,0.06,0.93,-1.75,-4.76-2.17,
-0.36,0.05,0.94,-2.03,-4.13-1.54,
-0.36,0.06,0.93,-2.17,-3.71-0.77,
-0.37,0.06,0.93,-2.8,-3.01-0.42,
-0.38,0.07,0.92,-3.22,-2.590.49,
-0.39,0.07,0.91,-3.71,-2.381.12,
-0.4,0.07,0.91,-4.34,-2.942.10,
-0.41,0.06,0.92,-4.62,-4.413.15,
-0.42,0.06,0.93,-5.81,-5.884.13,
-0.43,0.05,0.93,-6.51,-6.444.97,
-0.43,0.05,0.92,-6.86,-6.374.90,
-0.43,0.04,0.91,-6.51,-6.374.97,
-0.41,0.03,0.91,-6.79,-6.725.39,
-0.41,0.03,0.92,-6.44,-6.865.32,
-0.4,0.02,0.93,-6.37,-7.145.39,
-0.41,0.02,0.92,-6.65,-6.796.23,
-0.42,0.02,0.91,-6.72,-6.166.23,
-0.42,0.01,0.9,-6.58,-5.536.44,
-0.42,0.01,0.89,-6.09,-5.256.44,
-0.41,0,0.9,-5.46,-5.676.79,
-0.41,0,0.91,-5.32,-5.536.58,
-0.4,0,0.92,-5.39,-4.836.58,
-0.39,0,0.92,-5.04,-3.786.51,
-0.39,0,0.93,-4.27,-3.156.30,
-0.39,0,0.93,-3.92,-2.736.37,
-0.38,0.01,0.94,-3.43,-1.826.30,
-0.38,0.01,0.93,-2.66,-0.565.81,
-0.38,0.02,0.93,-1.96,0.915.74,
-0.39,0.01,0.92,-1.4,1.685.74,
-0.4,0.01,0.92,-0.91,1.895.60,
-0.41,0.02,0.92,-0.7,1.825.53,
-0.42,0.02,0.92,-0.7,1.685.04,
-0.43,0.02,0.91,-0.56,1.334.90,
-0.44,0.01,0.91,-0.28,0.985.18,
-0.44,0.01,0.91,-0.21,0.425.04,
-0.44,0.02,0.91,0,0.285.25,
-0.43,0.02,0.91,0.28,0.005.32,
-0.41,0.02,0.91,0.21,-0.565.39,
-0.39,0.03,0.92,0.28,-0.914.90,
-0.39,0.03,0.93,0.42,-0.914.62,
-0.39,0.03,0.93,0.42,-0.424.20,
-0.4,0.03,0.93,0.77,0.073.92,
-0.41,0.04,0.92,0.84,0.423.78,
-0.41,0.05,0.92,0.98,0.633.15,
-0.42,0.05,0.91,1.19,0.212.45,
-0.43,0.05,0.91,1.05,-0.562.17,
-0.43,0.05,0.91,0.98,-1.331.68,
-0.43,0.06,0.91,0.84,-2.170.84,
-0.43,0.05,0.91,0.56,-3.010.77,
-0.43,0.05,0.92,-0.14,-3.500.77,
-0.42,0.05,0.92,-0.56,-3.570.56,
-0.41,0.05,0.92,-0.84,-3.430.28,
-0.4,0.04,0.93,-0.77,-3.500.07,
-0.39,0.04,0.93,-0.84,-3.29-0.42,
-0.39,0.03,0.93,-0.77,-2.80-0.42,
-0.38,0.03,0.93,-0.77,-2.38-0.70,
-0.38,0.03,0.93,-0.63,-1.89-0.91,
-0.38,0.03,0.92,-0.42,-1.12-1.12,
-0.38,0.03,0.92,-0.07,-0.98-1.33,
-0.39,0.03,0.93,0.14,-1.05-1.33,
-0.39,0.03,0.93,0.21,-0.56-1.54,
-0.38,0.02,0.93,0.84,-0.07-1.61,
-0.37,0.02,0.93,1.33,0.21-1.82,
-0.38,0.02,0.93,1.75,0.35-1.54,
-0.38,0.03,0.93,1.89,0.77-1.26,
-0.38,0.03,0.93,1.96,1.19-1.05,
-0.38,0.04,0.92,1.89,1.47-1.05,
-0.38,0.04,0.92,1.68,1.12-0.49,
-0.39,0.04,0.93,1.33,0.98-0.14,
-0.39,0.04,0.93,1.12,0.910.07,
-0.39,0.04,0.93,0.98,0.560.14,
-0.39,0.04,0.92,0.7,0.000.21,
-0.39,0.04,0.92,0.14,-0.140.84,
-0.39,0.04,0.92,-0.14,-0.140.91,
-0.38,0.04,0.93,-0.28,0.000.91,
-0.38,0.03,0.93,-0.49,-0.141.19,
-0.38,0.03,0.94,-0.42,-0.351.47,
-0.39,0.03,0.95,-0.21,-0.281.75,
-0.39,0.04,0.93,-0.28,0.071.82,
-0.4,0.04,0.92,-0.35,0.071.54,
-0.4,0.04,0.92,-0.35,-0.421.82,
-0.41,0.03,0.92,-0.77,-1.052.17,
-0.41,0.03,0.92,-1.12,-1.472.38,
-0.41,0.03,0.92,-1.12,-1.822.38,
-0.41,0.03,0.91,-1.12,-2.242.24,
-0.41,0.02,0.91,-1.12,-2.592.66,
-0.4,0.02,0.91,-1.05,-3.012.10,
-0.41,0.01,0.92,-1.05,-2.872.38,
-0.4,0.01,0.92,-0.42,-2.522.45,
-0.4,0.01,0.93,0.14,-2.172.03,
-0.39,0.01,0.93,0.42,-2.172.10,
-0.39,0.01,0.92,0.63,-1.821.26,
-0.39,0.01,0.92,0.91,-1.401.89,
-0.39,0.02,0.92,1.12,-1.051.47,
-0.39,0.02,0.93,1.33,-0.771.40,
-0.39,0.02,0.93,1.54,-0.630.98,
-0.4,0.02,0.92,1.61,-0.420.70,
-0.4,0.02,0.92,1.82,-0.070.49,
-0.4,0.03,0.92,1.96,-0.21-0.14,
-0.39,0.03,0.92,2.03,-0.21-0.07,
-0.4,0.03,0.93,2.1,-0.42-0.49,
-0.39,0.03,0.93,2.1,-0.07-0.77,
-0.39,0.03,0.93,1.89,0.00-0.35,
-0.39,0.02,0.93,1.96,0.14-0.42,
-0.39,0.02,0.92,2.17,0.49-0.28,
-0.39,0.03,0.92,2.1,0.490.00,
-0.39,0.03,0.92,1.96,0.35-0.14,
-0.39,0.04,0.92,1.96,0.42-0.35,
-0.39,0.03,0.92,1.89,0.42-0.28,
-0.39,0.03,0.92,1.75,0.35-0.07,
-0.39,0.03,0.92,1.82,0.21-0.14,
-0.39,0.04,0.92,1.47,0.140.70,
-0.39,0.03,0.93,1.26,0.000.35,
-0.38,0.04,0.93,1.19,0.000.28,
-0.38,0.03,0.93,0.91,-0.070.77,
-0.38,0.03,0.93,0.63,0.070.91,
-0.38,0.04,0.93,0.63,0.420.77,
-0.38,0.03,0.93,0.63,0.350.70,
-0.38,0.04,0.93,0.49,0.280.84,
-0.38,0.03,0.93,0.21,0.490.77,
-0.39,0.03,0.93,0.14,0.280.98,
-0.39,0.03,0.93,0.14,0.421.19,
-0.39,0.03,0.93,0.21,0.350.91,
-0.4,0.03,0.93,-0.07,0.211.26,
-0.4,0.03,0.92,-0.21,0.141.61,
-0.4,0.03,0.92,-0.35,0.001.82,
-0.4,0.03,0.92,-0.42,-0.212.03,
-0.4,0.02,0.92,-0.49,-0.351.89,
-0.4,0.02,0.92,-0.63,-0.772.10,
-0.4,0.02,0.92,-0.49,-0.982.31,
-0.4,0.02,0.92,-0.49,-1.052.10,
-0.4,0.02,0.92,-0.35,-1.052.10,
-0.4,0.02,0.92,-0.21,-0.912.45,
-0.39,0.01,0.92,0.07,-1.122.31,
-0.4,0.02,0.92,0.35,-1.052.38,
-0.4,0.02,0.92,0.56,-1.052.31,
-0.4,0.01,0.92,0.77,-0.982.03,
-0.4,0.02,0.92,0.98,-0.841.75,
-0.4,0.02,0.92,1.26,-0.772.10,
-0.4,0.02,0.92,1.75,-0.421.54,
-0.4,0.02,0.92,2.17,-0.281.54,
-0.4,0.02,0.92,2.45,-0.211.26,
-0.4,0.03,0.92,2.8,-0.140.98,
-0.39,0.03,0.92,0.35,0.211.05,
-0.39,0.02,0.92,0.28,0.141.05,
-0.39,0.02,0.93,0.56,0.280.98,
-0.39,0.02,0.93,0.77,0.141.12,
-0.4,0.02,0.93,0.98,-0.071.26,
-0.4,0.02,0.93,1.12,-0.211.26,
-0.4,0.02,0.93,1.4,-0.141.12,
-0.4,0.03,0.92,1.47,0.001.47,
-0.4,0.03,0.92,1.12,-0.141.26,
-0.4,0.03,0.92,1.05,-0.421.12,
-0.4,0.03,0.92,0.7,-0.701.26,
-0.4,0.03,0.92,0.35,-0.841.05,
-0.4,0.02,0.92,0.21,-1.121.33,
-0.4,0.02,0.92,0.21,-1.191.61,
-0.4,0.02,0.92,0.35,-0.981.47,
-0.39,0.01,0.92,0.84,-0.911.47,
-0.39,0.01,0.93,1.12,-0.911.26,
-0.39,0.02,0.93,1.33,-0.701.12,
-0.39,0.02,0.93,1.68,-0.490.84,
-0.39,0.02,0.93,1.75,-0.280.77,
-0.39,0.03,0.93,1.89,-0.210.70,
-0.39,0.03,0.93,1.68,-0.140.91,
-0.39,0.03,0.93,1.61,-0.210.77,
-0.4,0.03,0.92,1.54,-0.350.42,
-0.4,0.03,0.92,1.26,-0.420.56,
-0.39,0.04,0.93,1.26,-0.630.35,
-0.39,0.03,0.93,1.05,-0.770.07,
-0.39,0.03,0.93,0.91,-0.700.49,
-0.38,0.03,0.93,0.98,-0.560.49,
-0.38,0.03,0.93,0.98,-0.280.21,
-0.38,0.03,0.93,0.84,-0.210.35,
-0.38,0.03,0.93,0.84,-0.070.42,
-0.38,0.03,0.93,0.63,0.140.56,
-0.38,0.03,0.92,0.35,0.350.70,
-0.39,0.02,0.92,0.49,0.210.56,
-0.39,0.02,0.92,0.56,0.140.56,
-0.39,0.02,0.92,0.63,0.070.84,
-0.39,0.02,0.93,0.63,0.071.19,
-0.39,0.02,0.93,0.56,0.000.91,
-0.39,0.02,0.93,0.7,0.001.33,
-0.39,0.02,0.92,0.77,0.001.19,
-0.39,0.02,0.93,0.7,0.001.33,
-0.39,0.02,0.93,0.63,0.001.68,
-0.4,0.03,0.93,0.63,0.001.47,
-0.4,0.03,0.93,0.63,0.001.26,
-0.4,0.02,0.93,0.49,-0.281.75,
-0.4,0.02,0.92,0.49,-0.421.47,
-0.4,0.02,0.92,0.35,-0.491.61,
-0.4,0.02,0.92,0.35,-0.841.68,
-0.4,0.02,0.92,0.35,-0.771.96,
-0.4,0.02,0.92,0.56,-0.911.75,
-0.4,0.02,0.92,0.49,-1.051.75,
-0.39,0.02,0.92,0.49,-0.911.75,
-0.39,0.02,0.92,0.7,-0.841.47,
-0.39,0.02,0.93,0.98,-0.631.47,
-0.39,0.02,0.93,1.26,-0.351.40,
-0.39,0.02,0.92,1.26,-0.281.40,
-0.39,0.02,0.93,1.4,-0.281.12,
-0.39,0.02,0.93,1.33,-0.210.98,
-0.39,0.03,0.93,1.47,-0.140.98,
-0.39,0.03,0.93,1.54,-0.140.91,
-0.39,0.03,0.93,1.33,-0.280.98,
-0.39,0.03,0.93,1.33,-0.281.12,
-0.39,0.03,0.93,1.19,-0.350.98,
-0.39,0.03,0.92,1.19,-0.210.84,
-0.39,0.03,0.92,1.19,-0.490.77,
-0.39,0.03,0.92,1.12,-0.490.84,
-0.39,0.03,0.93,0.98,-0.630.91,
-0.39,0.02,0.92,0.77,-0.491.05,
-0.39,0.02,0.92,0.91,-0.420.98,
-0.39,0.02,0.92,0.98,-0.490.91,
-0.39,0.02,0.93,1.12,-0.420.91,
-0.39,0.02,0.93,1.05,-0.280.70,
-0.39,0.02,0.92,1.12,-0.350.98,
-0.39,0.02,0.92,1.12,-0.140.98,
-0.39,0.02,0.93,1.19,-0.140.98,
-0.39,0.02,0.93,1.05,-0.211.26,
-0.39,0.03,0.93,0.98,-0.281.40,
-0.39,0.03,0.93,1.05,-0.141.26,
-0.39,0.03,0.93,1.05,-0.211.26,
-0.39,0.03,0.92,0.98,-0.490.98,
-0.39,0.03,0.93,0.84,-0.631.12,
-0.39,0.03,0.93,0.63,-0.491.33,
-0.39,0.03,0.93,0.49,-0.351.26,
-0.39,0.03,0.93,0.49,-0.210.98,
-0.39,0.03,0.93,0.56,-0.211.40,
-0.39,0.03,0.93,0.56,-0.141.05,
-0.39,0.03,0.93,0.7,-0.280.84,
-0.39,0.02,0.93,0.77,-0.141.12,
-0.39,0.02,0.93,0.84,-0.210.77,
-0.39,0.02,0.92,0.84,-0.070.84,
-0.39,0.03,0.92,0.77,-17.921.05,
-0.39,0.02,0.92,0.91,-0.140.98,
-0.4,0.02,0.92,0.77,-0.351.05,
-0.4,0.02,0.92,0.7,-0.351.19,
-0.4,0.02,0.92,0.91,-0.561.33,
-0.39,0.02,0.92,0.98,-0.491.26,
-0.39,0.03,0.93,1.19,-0.701.19,
-0.39,0.02,0.93,1.05,-0.630.98,
-0.39,0.03,0.93,1.05,-0.631.26,
-0.39,0.02,0.93,1.05,-0.491.05,
-0.39,0.02,0.93,1.12,-0.490.77,
-0.39,0.03,0.93,1.05,-0.421.05,
-0.39,0.02,0.93,0.91,-0.351.05,
-0.39,0.02,0.93,0.98,-0.350.84,
-0.39,0.03,0.92,0.98,-0.421.12,
-0.39,0.03,0.93,0.98,-0.491.26,
-0.39,0.03,0.93,1.12,-0.491.12,
-0.39,0.03,0.92,1.05,-0.280.98,
-0.39,0.03,0.92,0.84,-0.491.19,
-0.39,0.03,0.93,0.63,-0.420.98,
-0.39,0.03,0.93,0.84,-0.561.05,
-0.39,0.02,0.93,0.77,-0.491.26,
-0.39,0.03,0.93,0.91,-0.630.91,
-0.39,0.03,0.93,0.84,-0.491.05,
-0.39,0.02,0.93,0.91,-0.421.05,
-0.39,0.02,0.93,1.12,-0.350.91,
-0.39,0.03,0.93,0.98,-0.140.91,
-0.39,0.03,0.93,0.84,-0.280.77,
-0.39,0.03,0.93,0.91,-0.070.91,
-0.39,0.03,0.93,0.91,-0.140.70,
-0.39,0.03,0.93,0.7,0.000.84,
-0.39,0.03,0.93,0.84,-0.070.84,
-0.39,0.03,0.93,0.84,0.000.70,
-0.39,0.03,0.92,0.7,0.000.98,
-0.39,0.03,0.93,0.7,-0.140.91,
-0.39,0.03,0.93,0.84,0.000.56,
-0.39,0.02,0.92,0.98,-0.210.63,
-0.39,0.02,0.93,0.91,-0.140.63,
-0.4,0.02,0.92,1.05,-0.420.91,
-0.4,0.02,0.92,1.05,-0.350.77,
-0.39,0.02,0.92,1.05,-0.491.05,
-0.39,0.02,0.92,0.84,-0.491.12,
-0.39,0.02,0.93,0.7,-0.490.98,
-0.39,0.02,0.93,0.77,-0.420.84,
-0.39,0.02,0.93,0.77,-0.280.91,
-0.39,0.02,0.93,0.84,-0.210.70,
-0.39,0.02,0.93,0.98,-0.140.98,
-0.39,0.03,0.92,1.05,0.070.70,
-0.39,0.03,0.93,1.05,0.140.28,
-0.39,0.03,0.93,1.12,0.000.21,
-0.39,0.03,0.93,1.19,-0.070.28,
-0.39,0.03,0.92,1.12,-0.07-0.07,
-0.4,0.03,0.92,1.19,-0.28-0.14,
-0.39,0.03,0.93,0.98,-0.490.35,
-0.39,0.03,0.93,0.84,-0.490.21,
-0.39,0.03,0.93,0.56,-0.420.42,
-0.39,0.03,0.93,0.49,-0.630.63,
-0.39,0.02,0.93,0.63,-0.910.84,
-0.39,0.02,0.93,0.49,-0.770.49,
-0.39,0.02,0.93,0.49,-0.840.77,
-0.39,0.02,0.93,0.56,-0.841.26,
-0.39,0.02,0.92,0.49,-0.840.91,
-0.38,0.02,0.92,0.49,-0.631.19,
-0.39,0.02,0.93,0.56,-0.631.26,
-0.39,0.02,0.93,0.56,-0.491.19,
-0.39,0.02,0.92,0.7,-0.281.19,
-0.39,0.02,0.92,0.7,-0.071.61,
-0.39,0.02,0.92,0.7,-0.141.47,
-0.39,0.02,0.92,0.91,0.001.19,
-0.39,0.02,0.92,0.91,-0.141.33,
-0.4,0.02,0.93,0.98,-0.211.26,
-0.4,0.02,0.93,0.91,-0.281.40,
-0.4,0.02,0.92,0.91,-0.281.68,
-0.4,0.03,0.92,0.91,-0.421.33,
-0.4,0.03,0.92,0.91,-0.561.19,
-0.4,0.03,0.92,0.63,-0.841.47,
-0.39,0.03,0.93,0.49,-0.981.68,
-0.39,0.03,0.93,0.49,-0.841.54,
-0.39,0.03,0.93,0.42,-0.771.61,
-0.39,0.03,0.93,0.28,-0.841.33,
-0.39,0.02,0.93,0.21,-0.771.26,
-0.39,0.02,0.93,0.28,-0.841.12,
-0.39,0.02,0.93,0.56,-0.631.05,
-0.39,0.02,0.93,0.63,-0.560.98,
-0.39,0.02,0.92,0.84,-0.770.98,
-0.39,0.02,0.93,0.77,-0.630.84,
-0.39,0.02,0.93,0.77,-0.631.12,
-0.39,0.02,0.92,0.63,-0.491.40,
-0.39,0.02,0.92,0.7,-0.561.33,
-0.39,0.02,0.92,0.77,-0.631.33,
-0.39,0.02,0.93,0.63,-0.771.61,
-0.39,0.01,0.93,0.84,-0.981.75,
-0.4,0.02,0.93,0.91,-0.701.89,
-0.39,0.02,0.93,1.05,-0.912.10,
-0.39,0.02,0.93,1.12,-0.771.96,
-0.39,0.02,0.92,1.26,-0.771.82,
-0.39,0.02,0.93,1.33,-0.981.68,
-0.39,0.03,0.93,1.4,-0.631.26,
-0.39,0.03,0.93,1.75,-0.491.12,
-0.39,0.03,0.93,1.82,-0.490.91,
-0.39,0.03,0.93,1.61,-0.630.77,
-0.39,0.03,0.93,1.47,-0.771.05,
-0.39,0.03,0.92,1.33,-0.701.12,
-0.39,0.02,0.92,1.19,-0.840.98,
-0.39,0.02,0.93,0.98,-0.911.19,
-0.38,0.02,0.93,1.12,-0.631.12,
-0.38,0.02,0.93,1.26,-0.421.19,
-0.38,0.02,0.93,1.47,-0.351.12,
-0.38,0.02,0.93,1.54,-0.071.12,
-0.38,0.02,0.93,1.61,0.070.98,
-0.38,0.02,0.93,1.61,0.351.19,
-0.38,0.03,0.93,1.54,0.280.98,
-0.39,0.03,0.93,1.61,0.280.91,
-0.4,0.03,0.93,1.33,0.211.05,
-0.4,0.03,0.93,1.26,0.141.05,
-0.4,0.04,0.93,1.19,-0.070.91,
-0.39,0.04,0.93,1.05,-0.210.91,
-0.39,0.04,0.93,0.98,-0.420.70,
-0.39,0.04,0.93,0.49,-0.490.70,
-0.39,0.03,0.93,0.21,-0.280.98,
-0.39,0.03,0.93,-0.07,-0.420.91,
-0.39,0.03,0.93,-0.07,-0.560.84,
-0.38,0.03,0.93,0,-0.560.84,
-0.38,0.02,0.92,0.14,-0.560.77,
-0.38,0.02,0.93,0.21,-0.490.77,
-0.38,0.02,0.93,0.14,-0.350.91,
-0.38,0.02,0.93,0.28,-0.070.91,
-0.38,0.02,0.93,0.49,0.350.77,
-0.38,0.02,0.93,0.63,0.350.70,
-0.39,0.02,0.93,0.7,0.490.77,
-0.39,0.02,0.92,0.84,0.490.42,
-0.39,0.02,0.92,0.84,0.560.63,
-0.4,0.02,0.92,0.84,0.700.77,
-0.4,0.02,0.93,0.98,0.700.35,
-0.4,0.02,0.93,1.05,0.490.21,
-0.4,0.02,0.92,0.91,0.700.42,
-0.4,0.02,0.92,0.98,0.490.07,
-0.4,0.02,0.92,0.84,0.350.07,
-0.4,0.02,0.92,0.84,0.210.28,
-0.4,0.02,0.92,0.84,0.210.49,
-0.4,0.02,0.92,0.91,0.070.21,
-0.4,0.02,0.92,0.84,-0.070.63,
-0.4,0.02,0.92,0.98,-0.210.56,
-0.4,0.02,0.92,0.98,-0.560.63,
-0.39,0.02,0.92,0.91,-0.911.05,
-0.39,0.02,0.93,0.91,-0.840.98,
-0.39,0.02,0.92,0.91,-0.701.26,
-0.39,0.02,0.93,1.12,-0.700.91,
-0.39,0.02,0.92,1.19,-0.700.98,
-0.38,0.03,0.93,1.12,-0.631.33,
-0.39,0.02,0.93,1.12,-0.700.77,
-0.39,0.03,0.93,1.26,-0.560.98,
-0.39,0.02,0.93,1.05,-0.701.26,
-0.39,0.03,0.93,0.98,-0.491.12,
-0.39,0.02,0.93,0.7,-0.211.26,
-0.39,0.02,0.93,0.63,-0.211.47,
-0.39,0.02,0.93,0.63,-0.281.89,
-0.39,0.02,0.93,0.49,-0.141.19,
-0.39,0.02,0.93,0.56,-0.071.19,
-0.39,0.02,0.92,0.77,0.001.26,
-0.39,0.02,0.92,0.84,0.001.19,
-0.39,0.02,0.92,0.84,-0.071.19,
-0.39,0.02,0.92,0.91,-0.141.19,
-0.4,0.02,0.92,1.12,-0.141.05,
-0.39,0.02,0.92,1.26,0.071.26,
-0.39,0.02,0.92,1.4,-0.071.40,
-0.39,0.02,0.92,1.47,-0.211.26,
-0.4,0.03,0.93,1.4,-0.421.19,
-0.4,0.03,0.93,1.26,-0.631.47,
-0.4,0.03,0.93,1.19,-0.841.05,
-0.4,0.03,0.93,1.19,-0.841.40,
-0.39,0.03,0.93,0.98,-1.191.26,
-0.39,0.03,0.93,0.7,-1.191.12,
-0.39,0.03,0.93,0.49,-1.191.40,
-0.39,0.02,0.93,0.35,-1.051.54,
-0.39,0.02,0.93,0.21,-1.051.47,
-0.39,0.02,0.93,0.14,-0.841.54,
-0.39,0.02,0.93,0.28,-0.841.47,
-0.39,0.02,0.93,0.35,-0.771.54,
-0.39,0.02,0.93,0.49,-0.911.82,
-0.39,0.02,0.92,0.49,-0.841.82,
-0.39,0.02,0.92,0.63,-0.912.03,
-0.39,0.02,0.92,0.7,-0.912.03,
-0.39,0.02,0.93,0.63,-0.701.96,
-0.39,0.02,0.93,0.91,-0.701.82,
-0.39,0.02,0.93,0.91,-0.631.82,
-0.39,0.02,0.93,1.05,-0.631.75,
-0.39,0.03,0.93,1.12,-0.491.54,
-0.39,0.03,0.93,1.12,-0.421.26,
-0.39,0.03,0.93,1.05,-0.491.33,
-0.4,0.03,0.93,1.12,-0.491.19,
-0.39,0.03,0.93,1.05,-0.561.26,
-0.39,0.03,0.93,0.98,-0.630.98,
-0.39,0.03,0.93,0.98,-0.770.98,
-0.39,0.03,0.93,0.91,-0.631.12,
-0.39,0.03,0.93,0.91,-0.561.05,
-0.39,0.03,0.93,0.91,-0.421.05,
-0.39,0.03,0.92,0.84,-0.351.19,
-0.39,0.02,0.93,0.84,-0.630.98,
-0.39,0.02,0.93,0.91,-0.631.05,
-0.39,0.03,0.92,0.84,-0.630.98,
-0.39,0.02,0.93,0.77,-0.491.05,
-0.39,0.02,0.93,0.84,-0.560.84,
-0.39,0.02,0.93,0.91,-0.560.77,
-0.39,0.02,0.93,0.84,-0.351.05,
-0.39,0.02,0.93,0.98,-0.420.84,
-0.39,0.02,0.93,0.77,-0.421.12,
-0.39,0.02,0.93,0.84,-0.350.98,
-0.39,0.02,0.93,0.77,-0.280.84,
-0.39,0.02,0.93,0.84,-0.211.19,
-0.39,0.02,0.93,0.84,-0.351.19,
-0.39,0.02,0.93,0.91,-0.351.33,
-0.39,0.02,0.93,0.77,-0.211.12,
-0.39,0.02,0.92,0.77,-0.281.47,
-0.39,0.02,0.92,0.77,-0.351.33,
-0.39,0.02,0.93,0.84,-0.351.26,
-0.39,0.02,0.93,0.84,-0.421.47,
-0.39,0.02,0.92,0.7,-0.561.47,
-0.4,0.02,0.92,0.7,-0.701.61,
-0.4,0.02,0.92,0.63,-0.561.61,
-0.39,0.02,0.92,0.84,-0.631.68,
-0.39,0.02,0.93,0.91,-0.771.75,
-0.39,0.02,0.93,0.91,-0.771.61,
-0.39,0.02,0.93,0.91,-0.701.26,
-0.39,0.03,0.93,0.98,-0.561.19,
-0.38,0.03,0.93,0.98,-0.491.26,
-0.38,0.03,0.93,0.98,-0.351.26,
-0.38,0.03,0.92,1.05,-0.351.19,
-0.38,0.02,0.93,0.98,-0.421.19,
-0.39,0.02,0.93,0.77,-0.490.84,
-0.39,0.03,0.93,0.7,-0.350.98,
-0.39,0.03,0.93,0.49,-0.281.19,
-0.39,0.03,0.93,0.56,-0.351.12,
-0.39,0.03,0.93,0.56,-0.210.98,
-0.39,0.02,0.93,0.49,-0.350.91,
-0.39,0.02,0.93,0.49,-0.211.26,
-0.39,0.03,0.93,0.56,-0.141.12,
-0.39,0.02,0.92,0.77,-0.281.05,
-0.39,0.02,0.92,0.91,-0.350.84,
-0.39,0.02,0.92,0.98,-0.210.84,
-0.39,0.02,0.92,1.12,-0.210.98,
-0.39,0.02,0.92,0.98,-0.070.91,
-0.39,0.02,0.92,0.98,-0.140.70,
-0.39,0.03,0.93,1.12,-0.140.70,
-0.39,0.03,0.93,1.12,-0.280.70,
-0.39,0.03,0.93,0.91,-0.210.63,
-0.39,0.03,0.93,0.84,-0.280.98,
-0.38,0.03,0.93,0.63,-0.210.63,
-0.38,0.02,0.93,0.77,-17.920.49,
-0.39,0.02,0.93,0.7,-0.140.56,
-0.39,0.02,0.93,0.7,-0.071.05,
-0.39,0.02,0.93,0.84,-0.070.91,
-0.39,0.02,0.93,0.91,0.070.98,
-0.39,0.03,0.93,0.98,0.281.26,
-0.39,0.03,0.93,0.91,0.351.19,
-0.39,0.03,0.92,0.84,0.140.84,
-0.39,0.03,0.92,0.91,0.070.91,
-0.39,0.03,0.93,0.91,0.070.63,
-0.39,0.03,0.92,0.84,-0.140.84,
-0.39,0.03,0.92,0.42,-0.140.63,
-0.39,0.02,0.92,0.35,-0.280.98,
-0.39,0.02,0.92,0.49,-0.420.84,
-0.39,0.02,0.93,0.63,-0.421.19,
-0.39,0.02,0.92,0.84,-0.350.98,
-0.39,0.02,0.92,0.91,-0.561.19,
-0.39,0.02,0.93,1.05,-0.631.33,
-0.4,0.02,0.93,1.05,-0.560.91,
-0.39,0.02,0.93,1.05,-0.701.19,
-0.39,0.02,0.93,1.05,-0.701.40,
-0.39,0.03,0.93,1.19,-0.630.91,
-0.39,0.03,0.93,1.19,-0.561.19,
-0.39,0.03,0.93,1.19,-0.350.84,
-0.39,0.03,0.93,1.19,-0.280.35,
-0.39,0.03,0.93,1.26,-0.210.21,
-0.39,0.03,0.93,1.47,-0.070.21,
-0.39,0.03,0.92,1.4,0.000.07,
-0.39,0.03,0.92,1.33,0.140.28,
-0.39,0.03,0.92,1.19,-0.070.49,
-0.39,0.03,0.93,1.05,-0.140.21,
-0.39,0.02,0.93,0.98,-0.070.56,
-0.39,0.02,0.93,0.77,-0.140.70,
-0.39,0.02,0.93,0.91,-0.140.35,
-0.39,0.02,0.93,0.91,0.070.84,
-0.39,0.02,0.93,0.91,-0.070.91,
-0.39,0.02,0.93,0.98,-0.140.84,
-0.39,0.02,0.93,0.91,0.070.91,
-0.39,0.02,0.93,0.84,-0.070.98,
-0.39,0.02,0.93,0.98,0.070.84,
-0.39,0.02,0.93,0.98,0.281.26,
-0.39,0.03,0.93,0.84,0.351.05,
-0.39,0.02,0.92,0.91,0.421.05,
-0.39,0.02,0.92,0.77,0.281.05,
-0.39,0.03,0.92,0.84,0.350.98,
-0.4,0.03,0.93,0.84,0.210.98,
-0.4,0.03,0.93,0.84,0.140.84,
-0.4,0.03,0.92,0.63,-0.070.63,
-0.4,0.03,0.92,0.77,-0.350.77,
-0.4,0.03,0.92,0.7,-0.630.77,
-0.4,0.02,0.92,0.56,-0.700.84,
-0.4,0.02,0.92,0.7,-0.910.98,
-0.4,0.02,0.92,0.84,-0.980.84,
-0.39,0.02,0.92,0.84,-0.980.70,
-0.39,0.02,0.92,0.98,-0.980.91,
-0.39,0.02,0.93,1.12,-0.700.77,
-0.39,0.02,0.93,1.05,-0.420.70,
-0.39,0.02,0.93,1.12,-0.350.63,
-0.39,0.02,0.93,1.26,-0.350.70,
-0.39,0.02,0.93,1.4,-0.210.70,
-0.39,0.02,0.93,1.33,-0.280.70,
-0.39,0.02,0.93,1.26,-0.280.84,
-0.39,0.02,0.93,0.98,-0.420.84,
-0.39,0.02,0.93,0.91,-0.491.05,
-0.39,0.03,0.93,1.05,-0.420.98,
-0.39,0.02,0.93,0.98,-0.561.05,
-0.39,0.02,0.93,1.05,-0.421.05,
-0.39,0.02,0.93,1.12,-0.561.12,
-0.39,0.03,0.93,0.91,-0.351.05,
-0.39,0.03,0.93,0.84,-0.561.05,
-0.39,0.03,0.93,0.77,-0.421.19,
-0.39,0.03,0.93,0.77,-0.421.19,
-0.39,0.03,0.93,0.77,-0.350.91,
-0.39,0.02,0.93,0.84,-0.211.12,
-0.39,0.02,0.93,0.7,-0.141.19,
-0.39,0.02,0.92,0.77,-0.070.91,
-0.39,0.02,0.93,0.77,0.000.91,
-0.39,0.02,0.93,0.84,-0.210.91,
-0.39,0.02,0.93,0.77,-0.141.19,
-0.39,0.02,0.93,0.84,0.001.26,
-0.39,0.02,0.92,0.98,-0.071.26,
-0.39,0.02,0.92,0.91,-0.140.98,
-0.39,0.03,0.93,0.98,0.210.84,
-0.39,0.02,0.92,0.98,0.140.98,
-0.39,0.03,0.93,0.98,0.140.63,
-0.39,0.02,0.92,1.05,0.140.56,
-0.39,0.02,0.92,0.98,17.780.77,
-0.4,0.02,0.92,0.98,-0.070.70,
-0.39,0.02,0.92,1.05,0.000.84,
-0.39,0.02,0.92,0.98,-0.281.05,
-0.39,0.02,0.93,0.91,-0.350.91,
-0.39,0.02,0.93,1.05,-0.420.91,
-0.39,0.02,0.93,1.05,-0.351.05,
-0.39,0.02,0.92,1.19,-0.211.05,
-0.39,0.02,0.93,1.19,-0.280.98,
-0.39,0.02,0.93,0.91,-0.211.05,
-0.39,0.02,0.93,0.98,-0.211.26,
-0.4,0.02,0.92,1.12,-0.420.98,
-0.39,0.02,0.92,1.19,-0.420.98,
-0.39,0.02,0.93,1.26,-0.350.84,
-0.39,0.02,0.93,1.19,-0.281.40,
-0.39,0.03,0.93,1.12,-0.421.12,
-0.39,0.03,0.93,0.98,-0.561.40,
-0.39,0.03,0.93,0.91,-0.491.26,
-0.39,0.03,0.93,0.84,-0.561.33,
-0.39,0.03,0.93,0.7,-0.771.12,
-0.39,0.03,0.93,0.56,-0.701.19,
-0.39,0.03,0.93,0.42,-0.701.26,
-0.39,0.02,0.93,0.35,-0.701.26,
-0.39,0.02,0.93,0.28,-0.491.26,
-0.39,0.02,0.93,0.49,-0.561.33,
-0.39,0.02,0.92,0.56,-0.560.98,
-0.39,0.02,0.92,0.7,-0.351.19,
-0.39,0.02,0.92,0.7,-0.281.33,
-0.39,0.02,0.92,0.91,-0.350.91,
-0.39,0.02,0.92,0.98,-0.141.12,
-0.39,0.02,0.92,1.05,-0.141.19,
-0.39,0.02,0.92,1.12,-0.211.05,
-0.39,0.02,0.93,1.19,-0.210.91,
-0.39,0.02,0.93,1.26,-0.211.05,
-0.39,0.02,0.93,1.19,-0.210.84,
-0.39,0.03,0.93,1.05,-0.280.84,
-0.39,0.02,0.93,0.98,-0.140.70,
-0.39,0.02,0.93,0.98,-0.350.91,
-0.39,0.02,0.93,0.91,-0.350.63,
-0.39,0.02,0.93,0.84,-0.280.98,
-0.39,0.02,0.92,0.84,-0.350.98,
-0.39,0.02,0.93,0.98,-0.351.26,
-0.39,0.03,0.92,0.91,-0.421.12,
-0.39,0.02,0.93,0.77,-0.281.26,
-0.39,0.02,0.93,0.84,-0.421.12,
-0.39,0.02,0.92,0.7,-0.421.05,
-0.39,0.02,0.93,0.84,-0.491.33,
-0.39,0.02,0.93,0.84,-0.351.05,
-0.39,0.02,0.93,0.91,-0.421.19,
-0.39,0.02,0.93,0.84,-0.351.19,
-0.39,0.02,0.92,0.98,-0.351.05,
-0.39,0.02,0.92,1.12,-0.491.12,
-0.39,0.02,0.92,1.05,-0.421.05,
-0.39,0.02,0.93,0.84,-0.421.40,
-0.39,0.02,0.93,0.77,-0.701.40,
-0.39,0.03,0.93,0.84,-0.701.47,
-0.39,0.02,0.93,0.63,-0.841.40,
-0.39,0.02,0.93,0.77,-0.841.33,
-0.39,0.02,0.93,0.77,-0.911.05,
-0.39,0.02,0.93,0.84,-0.981.12,
-0.39,0.02,0.93,0.7,-1.051.05,
-0.39,0.02,0.92,0.77,-0.980.91,
-0.39,0.02,0.93,0.77,-0.631.12,
-0.39,0.02,0.92,0.98,-0.701.05,
-0.39,0.02,0.93,1.05,-0.701.12,
-0.39,0.02,0.93,0.98,-0.630.84,
-0.39,0.02,0.93,0.98,-0.701.05,
-0.39,0.02,0.93,0.98,-0.630.84,
-0.39,0.02,0.93,1.19,-0.701.05,
-0.39,0.03,0.93,1.12,-0.630.91,
-0.39,0.03,0.93,0.91,-0.771.19,
-0.39,0.02,0.93,0.91,-0.770.91,
-0.39,0.02,0.92,1.05,-0.841.05,
-0.39,0.02,0.93,0.91,-0.841.12,
-0.39,0.02,0.92,0.77,-0.701.05,
-0.39,0.02,0.92,0.7,-0.771.54,
-0.39,0.02,0.93,0.7,-0.771.26,
-0.38,0.03,0.93,0.91,-0.631.05,
-0.38,0.02,0.93,1.05,-0.350.91,
-0.38,0.02,0.93,1.19,-0.140.56,
-0.38,0.03,0.93,1.12,-0.210.84,
-0.39,0.03,0.93,1.12,-0.071.05,
-0.39,0.03,0.93,0.91,-0.210.91,
-0.39,0.03,0.93,0.77,-0.141.12,
-0.39,0.03,0.93,0.77,-0.141.12,
-0.39,0.03,0.93,0.77,-0.280.77,
-0.39,0.03,0.92,0.63,-0.421.12,
-0.39,0.02,0.93,0.7,-0.491.19,
-0.39,0.03,0.93,0.49,-0.421.40,
-0.39,0.02,0.93,0.49,-0.491.05,
-0.39,0.02,0.93,0.56,-0.420.91,
-0.39,0.02,0.92,0.63,-0.420.91,
-0.39,0.02,0.93,0.63,-0.350.77,
-0.39,0.02,0.93,0.77,-0.420.91,
-0.39,0.02,0.93,0.84,-0.210.98,
-0.39,0.02,0.93,0.91,-0.210.98,
-0.39,0.02,0.93,0.98,-0.140.84,
-0.39,0.02,0.93,0.98,-0.070.91,
-0.39,0.02,0.92,0.98,17.850.91,
-0.39,0.02,0.92,1.05,-0.211.12,
-0.39,0.02,0.93,0.91,-0.211.05,
-0.39,0.03,0.93,0.91,-0.070.98,
-0.39,0.03,0.93,0.77,-0.281.33,
-0.39,0.02,0.93,0.77,-0.211.05,
-0.39,0.02,0.93,0.84,-0.070.91,
-0.39,0.02,0.92,1.05,0.000.63,
-0.39,0.02,0.92,1.05,0.000.77,
-0.39,0.02,0.93,1.26,0.000.63,
-0.39,0.02,0.92,1.26,0.140.98,
-0.39,0.02,0.92,1.19,0.351.05,
-0.39,0.03,0.93,1.33,0.000.77,
-0.39,0.03,0.93,1.54,0.000.84,
-0.39,0.03,0.93,1.33,0.000.63,
-0.39,0.02,0.92,1.19,-0.210.70,
-0.39,0.02,0.92,1.05,-0.350.84,
-0.39,0.02,0.93,0.84,-0.420.98,
-0.39,0.02,0.93,0.84,-0.560.98,
-0.39,0.03,0.93,0.7,-0.841.12,
-0.39,0.03,0.93,0.7,-0.701.12,
-0.39,0.02,0.93,0.84,-0.771.05,
-0.38,0.02,0.92,0.77,-0.701.19,
-0.39,0.02,0.93,0.77,-0.350.77,
-0.39,0.03,0.93,0.84,-0.210.91,
-0.39,0.02,0.92,1.05,-0.140.63,
-0.39,0.02,0.93,0.91,-0.211.05,
-0.39,0.02,0.93,1.05,0.000.98,
-0.39,0.02,0.93,1.12,0.000.91,
-0.38,0.02,0.93,1.19,0.001.33,
-0.38,0.02,0.93,1.19,0.000.91,
-0.39,0.02,0.93,1.19,0.211.19,
-0.39,0.02,0.93,1.12,0.141.33,
-0.39,0.02,0.93,0.91,0.141.19,
-0.39,0.03,0.93,0.84,0.071.26,
-0.39,0.03,0.93,0.84,-0.071.47,
-0.39,0.03,0.92,0.77,-0.211.12,
-0.4,0.03,0.93,0.7,-0.351.26,
-0.4,0.03,0.93,0.49,-0.351.33,
-0.4,0.02,0.93,0.63,-0.421.19,
-0.39,0.03,0.93,0.49,-0.491.68,
-0.39,0.02,0.92,0.49,-0.351.47,
-0.39,0.03,0.92,0.7,-0.421.19,
-0.39,0.02,0.92,0.7,-0.491.12,
-0.39,0.02,0.92,0.63,-0.421.19,
-0.39,0.02,0.92,0.84,-0.351.12,
-0.39,0.02,0.93,0.84,-0.280.91,
-0.39,0.02,0.93,0.91,-0.560.84,
-0.39,0.02,0.93,0.98,-0.210.77,
-0.39,0.02,0.93,0.98,-0.140.84,
-0.39,0.02,0.93,0.98,-0.350.91,
-0.39,0.02,0.93,0.77,-0.070.70,
-0.39,0.02,0.93,0.91,-0.210.91,
-0.39,0.02,0.93,1.05,-0.350.77,
-0.39,0.02,0.93,0.91,-0.280.98,
-0.39,0.02,0.93,1.12,-0.351.12,
-0.39,0.02,0.92,1.05,-0.420.98,
-0.39,0.02,0.92,1.12,-0.420.91,
-0.39,0.02,0.93,1.05,-0.490.98,
-0.39,0.03,0.93,1.05,-0.490.98,
-0.39,0.03,0.93,1.05,-0.350.98,
-0.39,0.03,0.93,0.98,-0.560.84,
-0.39,0.03,0.93,0.91,-0.421.19,
-0.39,0.02,0.92,0.91,-0.350.63,
-0.39,0.02,0.92,0.84,-0.420.77,
-0.39,0.02,0.93,0.63,-0.280.91,
-0.39,0.02,0.93,0.77,-0.350.84,
-0.39,0.02,0.93,0.84,-0.280.98,
-0.39,0.02,0.93,0.91,-0.280.77,
-0.39,0.02,0.92,0.84,-0.140.70,
-0.39,0.02,0.92,0.91,-0.210.77,
-0.39,0.02,0.92,1.05,-0.070.63,
-0.39,0.02,0.93,1.19,-0.280.49,
-0.39,0.02,0.93,1.12,-0.280.70,
-0.39,0.02,0.93,1.12,-0.490.56,
-0.39,0.02,0.93,1.19,-0.420.56,
-0.39,0.02,0.93,1.26,-0.560.42,
-0.39,0.02,0.93,1.4,-0.350.49,
-0.39,0.03,0.93,1.26,-0.210.63,
-0.39,0.03,0.93,1.19,-0.280.63,
-0.39,0.03,0.93,0.98,-0.280.42,
-0.39,0.02,0.93,0.91,-0.420.70,
-0.39,0.02,0.93,0.84,-0.350.84,
-0.4,0.02,0.93,0.63,-0.560.84,
-0.4,0.02,0.93,0.77,-0.630.77,
-0.39,0.02,0.93,0.77,-0.700.91,
-0.39,0.02,0.93,0.7,-0.701.05,
-0.39,0.02,0.93,0.63,-0.561.19,
-0.39,0.02,0.93,0.7,-0.701.40,
-0.39,0.02,0.93,0.7,-0.421.33,
-0.39,0.02,0.93,0.63,-0.421.33,
-0.39,0.02,0.92,0.84,-0.351.54,
-0.39,0.02,0.93,1.05,-0.421.47,
-0.39,0.02,0.92,0.98,-0.211.61,
-0.39,0.02,0.93,1.05,-0.491.75,
-0.39,0.02,0.92,0.98,-0.421.75,
-0.39,0.03,0.93,1.05,-0.351.82,
-0.39,0.02,0.93,0.98,-0.421.68,
-0.39,0.03,0.93,0.98,-0.421.82,
-0.39,0.03,0.93,0.84,-0.561.54,
-0.4,0.03,0.93,0.63,-0.631.40,
-0.4,0.03,0.93,0.63,-0.841.26,
-0.39,0.03,0.93,0.56,-0.701.26,
-0.39,0.03,0.93,0.7,-0.841.05,
-0.39,0.02,0.93,0.56,-0.841.19,
-0.39,0.02,0.93,0.56,-0.911.47,
-0.39,0.02,0.93,0.42,-0.840.77,
-0.39,0.02,0.92,0.42,-1.051.12,
-0.39,0.02,0.92,0.49,-1.051.26,
-0.39,0.02,0.93,0.63,-1.051.12,
-0.39,0.02,0.93,0.7,-1.121.26,
