aX,aY,aZ,gX,gY,gZ
0.16,0.93,0.28,-0.14,-0.841.26,
0.16,0.93,0.28,-0.14,-0.701.33,
0.16,0.93,0.28,-0.35,-0.281.75,
0.16,0.93,0.28,-0.28,0.071.75,
0.16,0.93,0.29,-0.28,0.702.24,
0.16,0.94,0.29,-0.49,1.122.38,
0.16,0.93,0.29,-0.56,1.122.73,
0.15,0.93,0.29,-0.77,1.403.01,
0.15,0.92,0.29,-0.98,1.473.01,
0.15,0.92,0.29,-0.98,1.543.15,
0.15,0.92,0.29,-0.77,1.753.50,
0.15,0.92,0.29,-0.35,2.033.22,
0.15,0.92,0.29,0.14,2.313.22,
0.16,0.92,0.29,0.35,2.943.57,
0.15,0.93,0.29,0.42,3.853.50,
0.16,0.93,0.29,0.07,4.763.64,
0.16,0.93,0.29,-0.28,5.603.92,
0.16,0.93,0.29,-0.28,5.883.92,
0.16,0.93,0.29,-0.21,5.954.13,
0.16,0.94,0.29,-0.56,6.094.48,
0.15,0.93,0.29,-0.56,5.815.04,
0.15,0.93,0.29,-0.63,5.745.04,
0.15,0.93,0.29,-0.56,5.535.11,
0.15,0.92,0.29,-0.07,5.534.83,
0.14,0.92,0.3,0.7,5.884.62,
0.14,0.93,0.29,0.7,6.164.06,
0.13,0.93,0.28,0.49,5.673.36,
0.14,0.92,0.28,0.63,5.113.15,
0.14,0.92,0.28,0.56,5.392.52,
0.14,0.93,0.28,0.56,5.532.38,
0.14,0.93,0.29,0.49,5.602.38,
0.15,0.94,0.29,0.49,5.882.80,
0.15,0.93,0.29,0.56,5.883.01,
0.14,0.93,0.29,0.49,5.253.22,
0.14,0.93,0.28,0.49,4.623.92,
0.14,0.93,0.28,0.21,4.343.99,
0.14,0.93,0.29,0,4.133.99,
0.14,0.93,0.28,-0.14,3.573.99,
0.14,0.93,0.28,-0.35,3.504.27,
0.13,0.93,0.28,-0.49,3.153.85,
0.13,0.93,0.28,-0.56,2.873.50,
0.12,0.93,0.28,-0.91,2.523.50,
0.12,0.93,0.28,-0.63,2.032.59,
0.12,0.93,0.28,-0.35,1.752.31,
0.13,0.93,0.28,-0.28,0.912.17,
0.13,0.92,0.28,-0.28,0.701.68,
0.14,0.92,0.28,-0.56,0.071.75,
0.14,0.92,0.29,-0.7,-0.281.54,
0.15,0.92,0.28,-0.7,-0.421.47,
0.15,0.93,0.28,-0.7,-0.631.68,
0.15,0.93,0.29,-0.42,-1.331.40,
0.15,0.94,0.29,-0.56,-1.611.19,
0.14,0.94,0.29,-0.35,-1.890.98,
0.14,0.93,0.29,-0.21,-2.170.84,
0.14,0.93,0.29,-0.28,-2.310.84,
0.14,0.93,0.29,-0.14,-2.240.70,
0.14,0.93,0.29,-0.14,-2.660.14,
0.15,0.93,0.29,-0.42,-3.220.07,
0.15,0.92,0.29,-0.7,-3.710.14,
0.15,0.92,0.28,-0.77,-3.920.35,
0.15,0.92,0.28,-0.91,-4.130.63,
0.14,0.92,0.29,-0.98,-4.270.98,
0.14,0.93,0.29,-1.05,-4.621.12,
0.14,0.93,0.29,-1.26,-5.111.26,
0.14,0.93,0.3,-1.33,-5.460.91,
0.15,0.93,0.3,-1.54,-5.950.91,
0.15,0.93,0.3,-1.47,-6.23-0.14,
0.15,0.93,0.3,-1.54,-6.44-0.28,
0.15,0.92,0.3,-1.4,-6.44-1.05,
0.15,0.91,0.3,-1.26,-6.51-0.84,
0.15,0.91,0.3,-1.05,-6.37-1.12,
0.14,0.9,0.3,-0.49,-6.37-1.19,
0.15,0.91,0.3,-0.07,-6.30-1.05,
0.15,0.92,0.31,0.49,-6.23-0.84,
0.15,0.92,0.31,0.91,-6.02-1.05,
0.15,0.92,0.31,1.12,-6.16-1.40,
0.15,0.92,0.31,0.98,-6.02-1.33,
0.16,0.92,0.32,0.84,-5.95-1.61,
0.16,0.92,0.32,0.77,-5.88-1.54,
0.16,0.92,0.32,0.56,-5.53-1.33,
0.16,0.92,0.32,0.7,-5.18-1.33,
0.16,0.92,0.31,0.91,-4.90-1.05,
0.15,0.92,0.31,0.98,-4.69-0.70,
0.15,0.92,0.31,1.12,-4.34-0.42,
0.15,0.92,0.31,1.19,-3.99-0.28,
0.15,0.92,0.31,1.26,-3.50-0.35,
0.15,0.92,0.31,1.33,-3.15-0.28,
0.15,0.92,0.31,1.75,-2.94-0.28,
0.15,0.93,0.31,1.96,-2.52-0.77,
0.15,0.93,0.3,2.03,-2.45-0.91,
0.15,0.92,0.3,2.17,-2.38-0.98,
0.15,0.92,0.3,2.73,-2.24-1.12,
0.15,0.92,0.29,2.8,-1.96-0.98,
0.15,0.92,0.29,3.01,-1.75-0.77,
0.15,0.92,0.3,3.22,-1.47-0.84,
0.15,0.93,0.3,3.22,-1.47-0.49,
0.15,0.93,0.29,3.01,-1.61-1.05,
0.15,0.93,0.29,2.66,-1.75-0.77,
0.15,0.93,0.29,2.31,-1.89-0.91,
0.15,0.93,0.29,1.75,-1.82-0.77,
0.16,0.93,0.29,1.26,-1.40-0.63,
0.16,0.93,0.29,1.19,-1.050.00,
0.16,0.93,0.28,1.19,-0.42-0.07,
0.15,0.93,0.29,1.12,-0.210.42,
0.15,0.92,0.29,1.26,0.070.63,
0.15,0.92,0.29,1.54,-0.140.56,
0.15,0.92,0.28,1.89,0.000.56,
0.15,0.92,0.29,2.03,0.420.56,
0.15,0.92,0.29,2.03,0.35-0.21,
0.15,0.92,0.29,1.96,0.840.07,
0.16,0.92,0.29,1.96,1.26-0.14,
0.16,0.92,0.29,1.68,1.75-0.21,
0.16,0.93,0.29,1.68,1.680.07,
0.15,0.93,0.29,1.4,1.750.49,
0.15,0.93,0.28,1.33,1.331.19,
0.15,0.93,0.28,1.26,0.841.47,
0.14,0.93,0.29,1.19,0.631.40,
0.14,0.93,0.29,1.26,0.491.54,
0.14,0.93,0.29,0.98,0.281.68,
0.14,0.93,0.3,0.91,0.491.05,
0.14,0.93,0.29,0.7,0.490.84,
0.14,0.93,0.28,0.49,0.630.84,
0.14,0.93,0.28,0.49,0.700.70,
0.13,0.92,0.28,0.56,0.630.77,
0.13,0.93,0.28,0.7,0.420.70,
0.13,0.93,0.28,0.49,-0.140.77,
0.13,0.93,0.28,0.7,-0.560.63,
0.13,0.94,0.29,0.91,-0.910.14,
0.14,0.94,0.29,1.12,-1.540.49,
0.14,0.93,0.29,1.12,-1.680.14,
0.14,0.93,0.29,1.12,-1.68-0.07,
0.14,0.92,0.29,0.84,-1.680.07,
0.14,0.92,0.29,0.91,-1.540.14,
0.14,0.92,0.29,0.77,-1.190.28,
0.14,0.92,0.29,0.77,-0.700.49,
0.15,0.93,0.29,0.63,0.000.77,
0.15,0.93,0.29,0.49,0.280.56,
0.15,0.93,0.29,0.28,0.700.70,
0.16,0.92,0.29,0.28,0.701.40,
0.16,0.92,0.29,0.42,0.702.10,
0.16,0.92,0.29,0.49,0.982.66,
0.16,0.92,0.29,0.49,1.193.01,
0.16,0.92,0.3,0.49,1.893.22,
0.16,0.93,0.3,0.42,2.103.15,
0.16,0.93,0.29,0.49,2.593.15,
0.15,0.92,0.29,0.49,3.082.80,
0.15,0.93,0.29,0.63,3.502.52,
0.14,0.93,0.29,0.56,3.852.45,
0.14,0.93,0.29,0.7,3.641.89,
0.13,0.93,0.29,0.98,3.291.54,
0.13,0.93,0.29,1.12,2.731.61,
0.13,0.93,0.29,1.12,2.171.19,
0.13,0.93,0.29,1.19,1.610.91,
0.13,0.92,0.29,1.05,1.050.84,
0.13,0.92,0.29,0.84,0.770.63,
0.13,0.93,0.28,0.84,0.561.12,
0.13,0.92,0.28,0.84,0.211.33,
0.13,0.93,0.29,0.84,0.001.47,
0.14,0.93,0.29,0.84,-0.071.19,
0.14,0.93,0.29,0.56,-0.141.26,
0.15,0.94,0.29,0.35,-0.281.12,
0.15,0.93,0.3,0.21,-0.491.12,
0.15,0.93,0.3,-0.07,-0.840.98,
0.14,0.92,0.29,-0.21,-0.981.05,
0.14,0.92,0.29,0.07,-1.190.91,
0.14,0.92,0.29,0.35,-1.190.70,
0.13,0.92,0.29,0.35,-0.910.91,
0.14,0.92,0.29,0.35,-0.630.35,
0.14,0.92,0.29,0.35,-0.770.70,
0.15,0.92,0.3,0.35,-1.050.70,
0.15,0.92,0.3,0.35,-1.330.91,
0.15,0.93,0.3,0.28,-1.331.19,
0.15,0.93,0.3,0.14,-1.191.26,
0.16,0.93,0.3,-0.07,-0.911.40,
0.16,0.93,0.31,-0.07,-0.491.47,
0.16,0.93,0.3,-0.14,-0.141.33,
0.16,0.92,0.3,-0.14,0.141.33,
0.16,0.92,0.3,0.21,0.281.47,
0.16,0.92,0.3,0.42,0.561.33,
0.15,0.92,0.29,0.56,0.911.96,
0.15,0.92,0.3,0.84,1.052.17,
0.15,0.92,0.3,0.98,1.612.10,
0.15,0.92,0.3,1.19,1.611.96,
0.14,0.92,0.3,1.26,1.541.61,
0.14,0.93,0.29,1.19,1.401.40,
0.14,0.92,0.29,1.19,1.191.40,
0.15,0.92,0.29,1.12,1.191.54,
0.15,0.92,0.29,1.26,1.051.12,
0.14,0.92,0.29,1.33,1.121.19,
0.14,0.92,0.29,1.47,1.121.12,
0.14,0.92,0.3,1.61,1.540.77,
0.15,0.92,0.3,1.89,1.750.84,
0.15,0.93,0.3,1.96,2.031.05,
0.15,0.93,0.3,1.75,2.240.91,
0.15,0.93,0.29,1.96,2.101.12,
0.15,0.93,0.29,1.33,2.101.19,
0.15,0.93,0.28,0.98,1.611.47,
0.15,0.92,0.28,0.98,1.121.75,
0.14,0.92,0.29,1.26,0.982.45,
0.14,0.92,0.29,1.61,0.982.38,
0.13,0.93,0.29,2.1,0.912.31,
0.13,0.94,0.29,2.31,0.492.17,
0.12,0.94,0.29,2.03,0.281.75,
0.12,0.94,0.29,1.82,-0.211.05,
0.12,0.94,0.28,1.4,-0.630.70,
0.12,0.94,0.28,0.98,-1.120.07,
0.13,0.93,0.29,0.7,-1.540.14,
0.13,0.93,0.29,0.42,-2.03-0.14,
0.13,0.93,0.3,0.28,-2.380.00,
0.13,0.93,0.3,0.35,-2.59-0.07,
0.13,0.92,0.3,0.49,-2.870.21,
0.14,0.92,0.3,0.49,-2.940.42,
0.14,0.93,0.29,0.35,-3.150.28,
0.15,0.92,0.29,0.28,-3.010.98,
0.15,0.92,0.29,0.21,-2.590.63,
0.15,0.92,0.29,0.42,-1.960.77,
0.15,0.92,0.3,0.49,-1.680.63,
0.15,0.92,0.3,0.63,-1.470.70,
0.15,0.93,0.3,0.56,-1.470.49,
0.15,0.93,0.3,0.7,-1.610.49,
0.15,0.93,0.3,0.7,-1.330.70,
0.15,0.92,0.3,0.56,-1.190.56,
0.15,0.92,0.3,0.63,-0.840.84,
0.16,0.92,0.3,0.77,-0.561.12,
0.16,0.92,0.3,0.7,-0.491.26,
0.16,0.92,0.29,1.05,-0.631.26,
0.16,0.92,0.3,1.19,-0.351.26,
0.16,0.92,0.29,1.26,0.071.75,
0.16,0.92,0.3,1.4,0.841.75,
0.16,0.92,0.29,1.4,1.751.89,
0.16,0.92,0.29,1.54,2.591.75,
0.15,0.92,0.3,1.54,3.221.89,
0.15,0.93,0.3,1.54,3.361.82,
0.15,0.93,0.3,1.54,3.431.96,
0.15,0.93,0.29,1.4,3.221.96,
0.15,0.93,0.29,1.05,2.871.96,
0.15,0.92,0.29,1.12,2.662.17,
0.15,0.92,0.29,1.47,2.521.68,
0.15,0.92,0.29,2.03,2.661.33,
0.14,0.92,0.29,2.45,2.941.54,
0.14,0.92,0.29,2.87,3.151.26,
0.14,0.92,0.29,2.94,3.081.40,
0.14,0.92,0.29,2.73,3.151.33,
0.13,0.93,0.29,2.66,3.081.19,
0.13,0.93,0.29,2.31,2.801.26,
0.13,0.94,0.29,1.89,2.241.40,
0.13,0.94,0.29,1.68,1.891.05,
0.13,0.94,0.29,1.26,1.471.19,
0.13,0.93,0.29,0.84,1.121.19,
0.13,0.93,0.29,0.56,0.911.33,
0.13,0.93,0.29,0.49,0.421.61,
0.13,0.93,0.29,0.14,0.071.47,
0.13,0.93,0.28,0.07,-0.281.61,
0.13,0.92,0.28,0.07,-0.911.75,
0.13,0.92,0.28,0.35,-1.261.61,
0.12,0.92,0.29,0.98,-1.471.12,
0.13,0.92,0.29,1.54,-1.470.84,
0.14,0.93,0.3,1.68,-0.980.00,
0.14,0.93,0.3,1.61,-0.56-0.35,
0.15,0.94,0.3,1.26,-0.42-0.42,
0.16,0.93,0.29,0.91,-0.35-0.42,
0.16,0.93,0.29,0.77,-0.490.14,
0.15,0.93,0.29,0.49,-0.630.70,
0.15,0.92,0.29,0.42,-0.631.47,
0.14,0.93,0.29,0.14,-0.771.89,
0.13,0.93,0.29,0,-0.562.10,
0.13,0.93,0.29,-0.21,-0.562.66,
0.14,0.93,0.29,-0.14,-0.562.52,
0.13,0.92,0.29,-0.35,0.001.89,
0.14,0.92,0.29,-0.21,0.421.40,
0.14,0.92,0.29,-0.28,0.491.33,
0.15,0.92,0.28,-0.21,0.141.05,
0.15,0.92,0.29,-0.14,0.140.70,
0.15,0.92,0.29,0.21,-0.140.49,
0.15,0.93,0.3,0.56,-0.350.70,
0.15,0.93,0.3,0.98,-0.210.70,
0.15,0.93,0.3,1.4,0.070.70,
0.15,0.92,0.3,1.75,0.280.49,
0.15,0.92,0.3,1.75,0.560.49,
0.14,0.92,0.29,1.82,0.840.77,
0.14,0.92,0.29,1.54,1.050.56,
0.14,0.93,0.29,1.4,1.050.49,
0.14,0.93,0.3,1.19,0.910.63,
0.13,0.93,0.3,0.91,0.350.56,
0.13,0.93,0.3,0.77,-0.490.77,
0.14,0.93,0.29,0.84,-0.910.91,
0.14,0.93,0.29,1.12,-1.260.84,
0.14,0.93,0.29,1.12,-1.260.91,
0.14,0.92,0.29,0.98,-1.260.49,
0.14,0.92,0.29,1.19,-1.400.28,
0.14,0.92,0.3,1.26,-0.980.35,
0.14,0.93,0.29,1.19,-0.700.28,
0.14,0.93,0.3,1.19,-0.35-0.07,
0.14,0.93,0.29,1.12,-0.14-0.21,
0.14,0.93,0.3,1.19,-0.35-0.28,
0.14,0.93,0.3,1.26,-0.63-0.07,
0.14,0.93,0.3,1.19,-1.120.35,
0.15,0.93,0.3,1.33,-1.190.00,
0.15,0.93,0.3,1.05,-1.400.42,
0.15,0.93,0.29,0.7,-1.540.35,
0.15,0.92,0.29,0.7,-1.470.07,
0.15,0.92,0.3,0.84,-0.980.00,
0.15,0.92,0.29,1.05,-0.490.35,
0.15,0.92,0.3,1.47,0.000.28,
0.15,0.92,0.3,1.96,0.000.28,
0.15,0.92,0.29,2.24,0.000.14,
0.15,0.93,0.29,2.38,0.070.35,
0.15,0.92,0.29,2.45,0.210.35,
0.15,0.92,0.29,2.66,0.420.14,
0.14,0.92,0.29,2.73,0.70-0.07,
0.14,0.92,0.29,2.66,0.840.00,
0.14,0.92,0.29,2.59,0.910.00,
0.14,0.93,0.29,2.59,0.91-0.07,
0.14,0.93,0.29,2.38,1.260.35,
0.14,0.93,0.29,2.1,1.120.35,
0.14,0.93,0.29,2.1,0.700.42,
0.14,0.93,0.29,2.03,0.280.70,
0.14,0.93,0.29,1.68,0.140.98,
0.14,0.93,0.29,1.26,0.140.91,
0.14,0.93,0.29,0.98,0.000.91,
0.14,0.93,0.3,0.84,0.000.84,
0.14,0.93,0.3,0.7,0.281.12,
0.15,0.93,0.3,0.56,0.771.33,
0.15,0.92,0.3,0.56,0.631.40,
0.15,0.92,0.29,0.63,0.841.33,
0.15,0.92,0.29,0.77,0.701.54,
0.14,0.92,0.29,0.91,0.631.54,
0.15,0.92,0.29,1.12,0.841.68,
0.14,0.92,0.29,1.33,1.121.68,
0.14,0.93,0.29,1.68,1.121.54,
0.14,0.93,0.29,1.82,1.261.19,
0.14,0.93,0.29,1.75,1.541.12,
0.14,0.93,0.3,1.47,1.681.05,
0.14,0.93,0.29,1.33,1.680.63,
0.14,0.93,0.29,1.4,1.540.56,
0.14,0.93,0.29,1.4,1.260.70,
0.14,0.92,0.29,1.61,1.050.35,
0.13,0.92,0.29,1.82,0.840.63,
0.13,0.93,0.29,1.89,0.770.77,
0.14,0.93,0.28,1.89,0.980.49,
0.13,0.93,0.29,2.03,1.190.63,
0.13,0.93,0.29,1.82,1.680.98,
0.13,0.93,0.29,1.54,1.680.77,
0.13,0.93,0.29,1.54,1.330.49,
0.13,0.92,0.29,1.47,1.050.77,
0.13,0.93,0.29,1.4,0.840.84,
0.13,0.93,0.28,1.33,0.350.77,
0.13,0.93,0.28,1.4,0.210.70,
0.13,0.93,0.29,1.33,-0.140.77,
0.13,0.93,0.28,1.33,-0.350.84,
0.13,0.93,0.28,1.47,-0.490.84,
0.14,0.93,0.29,1.75,-0.560.56,
0.13,0.93,0.29,1.68,-0.350.56,
0.13,0.93,0.29,1.75,0.000.70,
0.13,0.93,0.29,1.68,0.140.28,
0.14,0.93,0.29,1.47,0.350.00,
0.13,0.93,0.29,1.26,0.630.00,
0.13,0.93,0.28,1.4,0.490.35,
0.13,0.93,0.29,1.61,0.350.42,
0.13,0.93,0.29,1.68,0.420.49,
0.14,0.93,0.28,1.68,0.350.56,
0.14,0.93,0.29,1.54,-0.140.49,
0.14,0.93,0.28,1.54,-0.070.42,
0.15,0.93,0.29,1.54,0.000.49,
0.15,0.92,0.29,1.75,0.420.42,
0.15,0.93,0.29,2.03,0.700.56,
0.15,0.92,0.28,1.89,1.190.35,
0.15,0.92,0.28,1.96,1.750.77,
0.14,0.92,0.28,2.1,2.240.77,
0.14,0.93,0.29,2.03,2.800.84,
0.14,0.93,0.29,2.03,3.290.35,
0.14,0.93,0.29,2.17,3.640.14,
0.14,0.92,0.29,2.31,4.130.07,
0.14,0.92,0.29,2.59,4.620.00,
0.15,0.92,0.29,3.01,4.90-0.21,
0.15,0.93,0.29,3.29,5.11-0.21,
0.14,0.93,0.28,3.71,5.460.07,
0.14,0.93,0.28,3.92,5.880.28,
0.14,0.93,0.28,4.13,6.090.77,
0.14,0.93,0.28,3.99,6.231.54,
0.13,0.93,0.28,3.85,6.372.03,
0.13,0.93,0.28,3.71,6.162.17,
0.12,0.93,0.28,3.22,5.882.38,
0.12,0.94,0.29,2.73,5.672.87,
0.12,0.94,0.29,2.17,5.602.45,
0.12,0.94,0.29,1.75,5.462.17,
0.12,0.94,0.29,1.4,5.252.66,
0.12,0.94,0.28,1.19,4.902.52,
0.12,0.94,0.28,1.33,4.482.17,
0.11,0.93,0.27,1.61,3.992.52,
0.11,0.93,0.27,1.54,3.782.66,
0.1,0.94,0.28,1.54,3.432.66,
0.1,0.94,0.28,1.61,2.942.24,
0.11,0.94,0.28,1.54,2.312.17,
0.11,0.94,0.28,1.26,1.751.33,
0.11,0.93,0.28,1.26,1.541.26,
0.12,0.93,0.29,1.33,1.471.12,
0.12,0.93,0.29,1.54,1.750.63,
0.12,0.93,0.29,1.4,1.680.63,
0.12,0.93,0.28,1.4,1.400.84,
0.12,0.93,0.28,1.61,0.771.12,
0.13,0.93,0.28,1.68,0.351.40,
0.13,0.93,0.28,1.68,-0.351.54,
0.13,0.93,0.29,1.54,-0.421.75,
0.14,0.93,0.29,1.61,-0.421.82,
0.14,0.93,0.29,1.75,0.211.82,
0.14,0.93,0.29,1.61,0.982.03,
0.13,0.94,0.29,1.33,1.402.38,
0.13,0.94,0.28,0.98,1.542.59,
0.12,0.94,0.28,0.56,1.122.59,
0.12,0.94,0.28,0.35,0.632.80,
0.12,0.94,0.27,0.21,0.352.94,
0.12,0.94,0.27,-0.07,-0.073.08,
0.12,0.94,0.27,-0.07,-0.563.15,
0.12,0.94,0.27,-0.35,-0.843.08,
0.11,0.93,0.27,-0.49,-1.262.80,
0.11,0.93,0.27,-0.56,-1.332.52,
0.11,0.93,0.27,-0.56,-1.331.82,
0.11,0.93,0.27,-0.56,-1.471.26,
0.11,0.93,0.27,-0.56,-1.681.33,
0.11,0.94,0.27,-0.49,-1.960.70,
0.12,0.94,0.27,-0.35,-2.660.56,
0.12,0.93,0.27,-0.28,-3.150.49,
0.12,0.93,0.28,0,-3.430.21,
0.12,0.93,0.28,0.35,-3.500.07,
0.13,0.94,0.28,0.49,-3.640.07,
0.13,0.93,0.28,0.56,-3.78-0.21,
0.14,0.93,0.28,0.63,-3.64-0.56,
0.14,0.92,0.28,0.49,-3.22-0.56,
0.14,0.92,0.28,0.28,-2.73-0.28,
0.14,0.93,0.28,0.42,-2.38-0.21,
0.14,0.93,0.28,0.49,-1.960.00,
0.14,0.93,0.28,0.91,-2.100.21,
0.15,0.93,0.29,0.63,-2.100.42,
0.15,0.93,0.29,0.42,-1.820.07,
0.15,0.93,0.29,0.07,-1.400.28,
0.15,0.93,0.29,-0.07,-1.120.14,
0.15,0.92,0.29,-0.14,-0.630.21,
0.15,0.92,0.29,0.07,-0.630.14,
0.15,0.92,0.29,0.49,-0.21-0.14,
0.15,0.92,0.29,0.7,0.280.07,
0.14,0.92,0.29,0.98,0.630.00,
0.13,0.93,0.29,1.33,0.700.07,
0.13,0.93,0.29,1.33,0.770.14,
0.13,0.93,0.29,1.54,0.840.21,
0.13,0.93,0.29,1.75,1.050.21,
0.13,0.93,0.29,1.47,1.260.07,
0.14,0.93,0.29,1.47,0.770.21,
0.14,0.93,0.29,1.4,0.560.28,
0.14,0.93,0.29,1.19,0.35-0.07,
0.13,0.92,0.29,1.4,0.000.00,
0.13,0.92,0.29,1.54,-0.070.00,
0.14,0.92,0.29,1.61,0.350.28,
0.14,0.93,0.29,1.75,0.980.28,
0.14,0.93,0.28,1.96,1.330.49,
0.14,0.93,0.29,1.96,1.680.35,
0.14,0.93,0.29,1.96,1.820.70,
0.14,0.93,0.29,1.96,1.890.98,
0.14,0.93,0.29,1.75,1.891.26,
0.14,0.92,0.29,1.82,1.821.47,
0.15,0.92,0.29,1.75,2.381.54,
0.15,0.92,0.29,1.68,2.871.82,
0.15,0.93,0.29,1.75,3.641.54,
0.15,0.93,0.29,1.82,4.411.47,
0.14,0.93,0.28,2.1,4.971.26,
0.13,0.93,0.28,2.24,5.251.05,
0.13,0.93,0.28,2.52,5.811.33,
0.13,0.93,0.29,2.59,5.741.33,
0.12,0.93,0.28,2.8,5.251.61,
0.12,0.93,0.29,3.01,4.831.54,
0.12,0.92,0.28,3.15,4.551.61,
0.12,0.93,0.28,3.08,4.201.96,
0.12,0.93,0.28,2.8,3.921.61,
0.12,0.93,0.27,2.66,3.781.54,
0.11,0.93,0.28,2.52,3.431.47,
0.11,0.94,0.27,2.38,3.151.40,
0.11,0.94,0.27,2.38,2.941.40,
0.11,0.94,0.28,2.38,2.731.26,
0.11,0.94,0.28,2.38,2.381.47,
0.11,0.94,0.28,2.24,1.891.47,
0.11,0.94,0.28,1.96,1.121.26,
0.11,0.94,0.28,1.33,0.561.26,
0.11,0.93,0.28,1.12,0.281.26,
0.11,0.93,0.27,0.91,0.280.98,
0.12,0.93,0.27,0.91,0.001.05,
0.12,0.93,0.27,0.84,-0.211.05,
0.11,0.93,0.27,0.98,-0.281.40,
0.11,0.93,0.27,1.19,-0.141.26,
0.12,0.93,0.28,1.4,-0.211.26,
0.12,0.93,0.28,1.82,-0.210.98,
0.12,0.94,0.28,1.75,0.001.05,
0.11,0.94,0.28,1.47,0.070.84,
0.11,0.94,0.28,1.33,0.000.49,
0.12,0.94,0.28,0.77,-0.420.42,
0.11,0.94,0.28,0.77,-0.49-0.07,
0.12,0.93,0.28,0.84,-0.77-0.14,
0.12,0.93,0.28,0.98,-1.260.07,
0.12,0.93,0.28,0.98,-1.61-0.49,
0.11,0.93,0.28,0.98,-1.820.35,
0.12,0.93,0.27,1.12,-2.170.49,
0.11,0.94,0.28,1.19,-2.380.63,
0.11,0.93,0.28,1.33,-2.590.63,
0.11,0.94,0.29,1.26,-2.590.84,
0.12,0.94,0.29,1.33,-2.520.49,
0.12,0.94,0.29,1.26,-2.03-0.28,
0.12,0.94,0.29,1.26,-1.82-0.49,
0.12,0.93,0.28,0.84,-1.68-1.05,
0.12,0.93,0.28,0.77,-2.03-0.98,
0.12,0.93,0.28,0.77,-1.75-0.56,
0.12,0.94,0.28,0.98,-1.89-0.56,
0.13,0.94,0.28,1.19,-1.890.00,
0.13,0.94,0.28,1.19,-2.240.28,
0.12,0.94,0.28,1.19,-2.590.14,
0.12,0.93,0.28,1.05,-2.660.35,
0.13,0.93,0.28,0.91,-2.800.63,
0.12,0.93,0.28,0.98,-2.520.49,
0.13,0.93,0.28,0.91,-2.170.35,
0.13,0.93,0.27,1.05,-2.03-0.21,
0.13,0.92,0.27,1.05,-1.890.00,
0.13,0.93,0.27,1.12,-1.33-0.21,
0.13,0.93,0.27,1.26,-0.770.00,
0.13,0.93,0.27,1.4,-0.350.00,
0.13,0.94,0.27,1.54,-0.210.21,
0.13,0.94,0.27,1.82,-0.070.21,
0.13,0.94,0.28,1.75,-0.070.28,
0.12,0.94,0.28,1.82,-0.630.35,
0.11,0.93,0.28,1.68,-1.120.49,
0.11,0.93,0.28,1.75,-1.540.49,
0.12,0.93,0.28,1.75,-1.610.56,
0.12,0.93,0.28,1.75,-1.400.63,
0.12,0.93,0.28,1.82,-0.910.77,
0.12,0.93,0.28,1.82,-0.420.56,
0.12,0.94,0.28,1.75,-0.140.84,
0.12,0.94,0.27,1.68,-0.350.77,
0.12,0.94,0.27,1.54,-0.490.70,
0.12,0.94,0.28,1.26,-0.700.70,
0.12,0.94,0.28,1.12,-0.770.84,
0.12,0.93,0.28,0.84,-0.840.35,
0.12,0.93,0.28,0.7,-0.560.49,
0.12,0.93,0.28,0.77,-0.280.84,
0.12,0.93,0.28,0.91,-0.070.77,
0.12,0.94,0.28,0.98,0.420.70,
0.12,0.94,0.27,0.91,0.211.05,
0.12,0.94,0.27,1.05,-0.140.70,
0.12,0.94,0.26,1.26,-0.701.12,
0.12,0.93,0.26,1.4,-1.401.40,
0.12,0.93,0.27,1.54,-1.191.26,
0.12,0.93,0.27,1.68,-0.911.47,
0.12,0.94,0.27,1.68,-0.421.47,
0.12,0.94,0.27,1.61,-0.071.19,
0.11,0.94,0.27,1.26,0.141.12,
0.12,0.94,0.27,0.7,0.280.84,
0.11,0.94,0.27,0.49,0.280.56,
0.12,0.94,0.27,0.56,0.070.63,
0.12,0.93,0.27,0.77,-0.140.49,
0.12,0.93,0.27,0.84,0.000.28,
0.13,0.93,0.27,0.91,-0.140.84,
0.13,0.94,0.27,1.05,-0.211.05,
0.12,0.93,0.27,0.77,-0.421.12,
0.12,0.94,0.27,0.84,-0.281.33,
0.12,0.94,0.27,0.77,0.141.47,
0.12,0.93,0.28,0.84,0.071.26,
0.12,0.93,0.28,0.7,0.211.12,
0.12,0.93,0.28,0.63,0.281.19,
0.13,0.93,0.28,0.56,0.561.19,
0.13,0.93,0.28,0.63,0.631.26,
0.13,0.93,0.28,0.7,0.701.40,
0.13,0.93,0.28,0.7,0.771.47,
0.13,0.93,0.27,0.56,0.701.89,
0.13,0.93,0.27,0.7,0.911.61,
0.12,0.93,0.27,0.56,1.121.75,
0.12,0.94,0.27,0.49,1.471.75,
0.12,0.94,0.28,0.35,1.331.89,
0.12,0.94,0.28,0.49,1.471.68,
0.12,0.94,0.28,0.28,1.191.75,
0.12,0.94,0.28,0.21,1.051.47,
0.11,0.94,0.28,0.07,0.841.54,
0.12,0.93,0.28,0.21,0.771.61,
0.12,0.93,0.28,0.28,0.561.47,
0.12,0.93,0.27,0.35,0.701.19,
0.12,0.93,0.27,0.56,0.701.47,
0.12,0.93,0.27,0.63,0.771.33,
0.12,0.93,0.27,0.77,0.981.75,
0.12,0.93,0.28,1.05,1.331.61,
0.12,0.94,0.28,1.12,1.261.75,
0.12,0.94,0.28,0.98,1.191.54,
0.12,0.93,0.28,0.91,1.121.54,
0.12,0.93,0.28,0.91,0.981.75,
0.12,0.94,0.28,0.77,0.981.47,
0.12,0.93,0.28,0.77,1.051.40,
0.11,0.93,0.28,0.7,1.051.26,
0.11,0.93,0.28,0.63,1.331.26,
0.11,0.93,0.27,0.7,1.190.77,
0.11,0.93,0.27,0.63,1.121.12,
0.11,0.93,0.28,0.77,0.911.12,
0.11,0.93,0.28,0.91,0.561.12,
0.11,0.94,0.28,1.05,0.070.84,
0.11,0.93,0.28,0.91,-0.700.98,
0.11,0.93,0.28,1.05,-1.331.12,
0.11,0.94,0.28,0.84,-1.611.19,
0.11,0.94,0.28,0.77,-1.680.84,
0.11,0.94,0.28,0.56,-1.540.84,
0.11,0.94,0.28,0.84,-1.960.14,
0.11,0.93,0.28,0.77,-2.24-0.63,
0.11,0.93,0.28,0.84,-2.03-0.63,
0.11,0.93,0.28,0.84,-2.03-0.98,
0.11,0.94,0.29,0.56,-1.96-0.91,
0.12,0.94,0.28,0.14,-2.31-0.56,
0.12,0.94,0.28,-0.07,-2.520.07,
0.12,0.94,0.28,-0.21,-2.80-0.35,
0.13,0.93,0.28,-0.42,-3.290.07,
0.13,0.93,0.28,-0.28,-3.360.63,
0.13,0.93,0.28,-0.14,-3.360.70,
0.13,0.92,0.28,-0.07,-2.941.05,
0.13,0.93,0.28,0.14,-2.521.05,
0.13,0.93,0.28,0.42,-2.100.91,
0.13,0.93,0.28,0.63,-1.540.91,
0.13,0.93,0.28,0.63,-1.330.77,
0.13,0.93,0.28,0.91,-1.050.42,
0.13,0.93,0.29,0.84,-0.700.56,
0.13,0.93,0.29,0.84,-0.420.63,
0.13,0.93,0.28,0.91,-0.210.77,
0.13,0.93,0.28,0.98,-0.211.26,
0.13,0.93,0.28,1.05,-0.351.05,
0.13,0.94,0.28,1.26,-0.421.26,
0.12,0.93,0.28,1.4,-0.141.19,
0.12,0.93,0.28,1.47,0.001.19,
0.12,0.93,0.28,1.47,0.281.40,
0.12,0.93,0.28,1.54,0.491.26,
0.11,0.94,0.28,1.47,0.561.33,
0.11,0.93,0.28,1.47,0.491.47,
0.12,0.93,0.28,1.4,0.351.40,
0.11,0.93,0.28,1.19,0.561.33,
0.12,0.94,0.28,1.05,0.631.33,
0.12,0.94,0.28,0.98,0.491.40,
0.12,0.93,0.28,0.91,0.281.26,
0.11,0.93,0.28,0.84,0.421.61,
0.11,0.93,0.28,1.05,0.351.33,
0.11,0.93,0.28,0.98,0.281.47,
0.12,0.94,0.27,0.84,-0.141.61,
0.12,0.93,0.27,0.98,-0.631.54,
0.12,0.93,0.28,1.05,-0.631.75,
0.12,0.93,0.28,1.05,-0.351.61,
0.11,0.93,0.27,1.19,-0.071.61,
0.11,0.94,0.27,0.98,0.071.61,
0.11,0.94,0.27,0.84,0.141.47,
0.11,0.94,0.27,0.77,0.001.19,
0.11,0.94,0.28,0.56,-0.141.26,
0.11,0.93,0.28,0.49,-0.561.47,
0.12,0.93,0.28,0.28,-0.771.26,
0.12,0.93,0.28,0.28,-1.051.68,
0.12,0.93,0.28,0.35,-1.261.75,
0.12,0.94,0.28,0.21,-0.911.33,
0.12,0.94,0.28,0.07,-1.051.47,
0.12,0.94,0.28,0.21,-1.121.12,
0.12,0.94,0.28,0.07,-1.261.19,
0.12,0.93,0.28,0.21,-1.471.40,
0.13,0.93,0.27,0.28,-1.611.19,
0.13,0.93,0.28,0.35,-1.401.54,
0.13,0.93,0.28,0.49,-1.191.75,
0.13,0.93,0.28,0.49,-0.981.61,
0.13,0.94,0.28,0.21,-0.631.40,
0.13,0.94,0.28,0,-0.351.68,
0.13,0.94,0.28,-0.07,-0.212.03,
0.12,0.93,0.28,0.14,-0.071.89,
0.12,0.93,0.28,0.21,0.142.03,
0.12,0.93,0.28,0.28,0.002.17,
0.12,0.93,0.28,0.35,-0.141.89,
0.13,0.93,0.28,0.42,-0.422.03,
0.13,0.93,0.28,0.49,-0.491.89,
0.13,0.93,0.28,0.35,-0.141.96,
0.12,0.93,0.28,0.42,0.421.68,
0.12,0.93,0.28,0.21,0.981.75,
0.13,0.93,0.28,0.14,1.261.75,
0.13,0.94,0.28,0.28,1.121.75,
0.12,0.94,0.28,0.14,1.191.96,
0.12,0.93,0.28,0.28,0.562.17,
0.12,0.93,0.28,0.42,0.072.38,
0.12,0.93,0.28,0.35,-0.282.45,
0.12,0.93,0.28,0.42,0.072.31,
0.12,0.93,0.28,0.28,0.352.17,
0.12,0.94,0.28,0.28,0.632.03,
0.12,0.94,0.28,0.07,0.911.89,
0.12,0.94,0.27,-0.07,0.562.45,
0.12,0.94,0.27,-0.21,0.142.17,
0.12,0.94,0.27,-0.21,-0.352.45,
0.12,0.93,0.27,-0.42,-0.562.59,
0.11,0.94,0.28,-0.49,-0.772.59,
0.11,0.93,0.28,-0.63,-1.122.52,
0.12,0.93,0.28,-0.77,-1.332.38,
0.12,0.93,0.28,-0.77,-1.402.24,
0.12,0.93,0.28,-0.91,-1.332.17,
0.12,0.94,0.28,-1.05,-1.122.10,
0.12,0.94,0.27,-0.98,-1.052.59,
0.12,0.94,0.27,-0.91,-1.192.52,
0.12,0.93,0.27,-0.91,-1.542.24,
0.11,0.93,0.27,-0.63,-1.962.59,
0.11,0.93,0.27,-0.28,-2.102.38,
0.12,0.93,0.28,-0.21,-1.892.03,
0.11,0.93,0.28,-0.21,-1.542.03,
0.12,0.94,0.28,-0.28,-1.401.75,
0.12,0.93,0.28,-0.35,-1.541.33,
0.12,0.93,0.28,-0.56,-1.891.68,
0.12,0.93,0.28,-0.77,-1.821.54,
0.12,0.94,0.28,-0.98,-2.101.47,
0.12,0.94,0.28,-1.05,-2.521.82,
0.12,0.94,0.28,-0.98,-2.731.61,
0.12,0.93,0.28,-1.12,-3.011.82,
0.12,0.93,0.28,-1.26,-3.151.47,
0.13,0.92,0.29,-1.12,-2.801.40,
0.13,0.92,0.29,-1.12,-2.801.68,
0.13,0.93,0.29,-1.12,-2.451.82,
0.13,0.93,0.29,-1.26,-2.451.96,
0.13,0.93,0.29,-1.19,-2.451.96,
0.13,0.93,0.29,-1.12,-2.591.96,
0.13,0.93,0.3,-1.05,-2.311.75,
0.13,0.93,0.3,-1.33,-2.242.03,
0.14,0.93,0.3,-1.47,-2.172.03,
0.14,0.93,0.29,-1.54,-2.102.24,
0.13,0.93,0.29,-1.54,-2.242.31,
0.13,0.93,0.29,-1.54,-2.172.80,
0.13,0.93,0.29,-1.47,-2.452.73,
0.12,0.93,0.29,-1.47,-2.312.52,
0.12,0.93,0.3,-1.33,-2.242.17,
0.13,0.92,0.3,-1.05,-1.891.61,
0.13,0.92,0.3,-1.05,-1.541.26,
0.14,0.92,0.3,-0.77,-1.401.12,
0.14,0.92,0.3,-0.49,-1.331.75,
0.15,0.92,0.3,-0.35,-0.911.54,
0.15,0.92,0.3,-0.21,-0.701.89,
0.15,0.93,0.3,0.21,-1.052.31,
0.15,0.92,0.3,0.28,-1.402.10,
0.15,0.91,0.3,0.35,-1.121.82,
0.14,0.92,0.3,0.28,-0.771.75,
0.14,0.92,0.3,0.35,-0.141.68,
0.15,0.93,0.3,0.35,0.211.75,
0.15,0.93,0.3,0.28,0.281.33,
0.14,0.92,0.3,0.21,-0.211.33,
0.14,0.92,0.3,0.21,-0.631.68,
0.14,0.92,0.3,0.35,-0.981.89,
0.14,0.92,0.3,0.28,-0.841.82,
0.14,0.92,0.3,0.42,-0.562.17,
0.15,0.92,0.3,0.28,-0.422.45,
0.14,0.93,0.3,0.21,-0.212.03,
0.14,0.93,0.3,0,-0.351.96,
0.14,0.93,0.29,-0.35,-0.561.96,
0.14,0.92,0.3,-0.35,-0.841.96,
0.14,0.92,0.3,-0.21,-1.121.89,
0.14,0.92,0.3,0.07,-0.981.75,
0.14,0.92,0.29,0,-0.701.75,
0.14,0.92,0.29,0,-0.421.82,
0.14,0.92,0.29,-0.07,-0.352.03,
0.14,0.93,0.29,-0.14,-0.422.03,
0.14,0.93,0.29,-0.21,-0.562.10,
0.13,0.92,0.3,-0.07,-0.981.89,
0.14,0.93,0.3,-0.07,-0.771.75,
0.14,0.93,0.3,-0.35,-0.561.89,
0.14,0.93,0.3,-0.42,-0.421.40,
0.15,0.93,0.29,-0.56,-0.421.68,
0.15,0.93,0.29,-0.56,-0.351.82,
0.15,0.92,0.29,-0.49,-0.351.47,
0.14,0.92,0.29,-0.28,-0.281.75,
0.14,0.92,0.29,0.14,-0.211.96,
0.14,0.92,0.29,0.49,-0.071.89,
0.14,0.92,0.3,0.77,0.421.47,
0.14,0.92,0.3,1.19,0.841.75,
0.14,0.92,0.3,1.19,1.401.61,
0.14,0.93,0.3,1.12,1.541.54,
0.14,0.93,0.3,1.12,1.401.61,
0.14,0.93,0.3,0.77,0.981.26,
0.14,0.93,0.3,0.56,0.491.26,
0.14,0.93,0.3,0.63,0.281.12,
0.14,0.92,0.3,0.91,0.280.98,
0.14,0.92,0.3,1.05,0.350.70,
0.14,0.92,0.3,1.19,0.490.63,
0.14,0.92,0.3,1.26,0.490.70,
0.14,0.92,0.3,1.26,0.490.84,
0.14,0.92,0.31,1.33,0.490.91,
0.15,0.92,0.31,1.47,0.771.33,
0.15,0.92,0.31,1.47,1.051.26,
0.15,0.93,0.31,1.47,1.191.19,
0.15,0.92,0.31,1.33,1.261.33,
0.14,0.93,0.3,1.26,1.051.05,
0.14,0.92,0.3,1.19,0.911.05,
0.14,0.92,0.3,1.26,0.700.84,
0.14,0.91,0.3,1.4,0.911.05,
0.14,0.91,0.3,1.54,1.261.40,
0.14,0.92,0.31,1.54,1.821.19,
0.15,0.92,0.31,1.54,1.961.47,
0.15,0.92,0.31,1.68,2.171.47,
0.15,0.93,0.31,1.61,2.171.75,
0.14,0.93,0.3,1.61,1.752.10,
0.15,0.93,0.3,1.61,1.542.10,
0.14,0.93,0.3,1.47,1.752.03,
0.14,0.93,0.3,1.54,1.891.89,
0.14,0.93,0.3,1.4,2.451.68,
0.14,0.93,0.3,1.54,2.591.47,
0.14,0.92,0.3,1.75,2.731.54,
0.13,0.92,0.29,1.89,2.941.33,
0.13,0.92,0.3,1.89,3.221.54,
0.14,0.92,0.3,2.1,3.291.33,
0.14,0.93,0.3,2.1,3.221.61,
0.14,0.93,0.3,2.17,3.151.40,
0.14,0.93,0.3,1.96,2.801.40,
0.14,0.93,0.3,1.68,2.241.40,
0.13,0.93,0.29,1.54,1.961.26,
0.14,0.93,0.29,1.54,1.891.33,
0.14,0.92,0.29,1.4,1.961.12,
0.14,0.92,0.29,1.54,1.961.26,
0.14,0.92,0.29,1.68,2.101.12,
0.15,0.92,0.29,1.61,2.520.98,
0.14,0.92,0.3,2.03,2.731.26,
0.14,0.92,0.3,2.17,3.221.40,
0.14,0.93,0.3,2.38,3.291.61,
0.14,0.93,0.3,2.31,2.871.89,
0.14,0.93,0.29,2.1,2.661.68,
0.14,0.93,0.29,1.96,2.591.68,
0.14,0.93,0.29,1.89,2.591.61,
0.14,0.93,0.29,1.96,2.871.68,
0.14,0.92,0.3,1.82,3.361.54,
0.14,0.92,0.29,1.68,3.991.68,
0.14,0.93,0.29,1.54,4.481.47,
0.14,0.93,0.29,1.54,4.901.40,
0.13,0.93,0.29,1.54,5.041.47,
0.13,0.93,0.29,1.75,4.621.33,
0.13,0.93,0.29,1.96,4.271.05,
0.13,0.92,0.29,2.17,3.921.12,
0.13,0.92,0.29,2.52,3.640.49,
0.13,0.92,0.29,2.52,3.570.49,
0.12,0.92,0.29,2.52,3.360.21,
0.12,0.92,0.29,2.66,2.94-0.35,
0.12,0.92,0.29,2.52,2.24-0.07,
0.12,0.92,0.29,2.38,1.61-0.35,
0.13,0.93,0.3,2.31,1.54-0.21,
0.14,0.93,0.3,2.31,1.40-0.28,
0.14,0.93,0.29,2.1,1.680.21,
0.15,0.93,0.29,1.96,1.890.35,
0.15,0.93,0.3,1.96,1.960.84,
0.15,0.93,0.3,1.89,2.031.19,
0.15,0.93,0.3,1.89,1.751.26,
0.14,0.93,0.3,1.96,1.681.40,
0.14,0.93,0.3,1.96,1.400.98,
0.14,0.93,0.29,1.89,1.051.26,
0.13,0.93,0.29,1.96,1.191.54,
0.13,0.93,0.29,1.89,1.261.12,
0.13,0.93,0.29,1.75,1.331.19,
0.12,0.93,0.29,1.75,1.470.98,
0.12,0.93,0.29,1.54,1.260.84,
0.11,0.93,0.29,1.54,0.630.42,
0.11,0.93,0.28,1.26,-0.210.70,
0.11,0.93,0.28,1.4,-0.560.42,
0.12,0.92,0.29,1.4,-0.770.35,
0.12,0.92,0.28,1.47,-0.770.28,
0.12,0.93,0.29,1.33,-0.840.28,
0.12,0.93,0.28,1.12,-1.260.35,
0.11,0.94,0.28,0.98,-1.540.28,
0.11,0.94,0.28,1.19,-2.380.49,
0.1,0.95,0.28,1.12,-3.220.00,
0.11,0.94,0.28,0.98,-4.06-0.35,
0.11,0.94,0.28,0.98,-4.48-0.42,
0.11,0.93,0.29,0.77,-4.48-0.70,
0.11,0.92,0.29,0.63,-4.48-1.12,
0.12,0.92,0.29,0.84,-4.06-0.98,
0.12,0.93,0.29,0.77,-4.13-0.70,
0.12,0.93,0.29,0.56,-4.48-0.70,
0.12,0.94,0.28,0.28,-5.32-0.49,
0.12,0.94,0.29,-0.07,-5.53-0.21,
0.13,0.94,0.29,0,-5.32-0.35,
0.14,0.93,0.3,0.21,-4.55-0.28,
0.15,0.92,0.3,0.35,-3.78-0.21,
0.14,0.92,0.3,0.7,-3.22-0.42,
0.14,0.92,0.31,0.91,-3.15-0.35,
0.14,0.92,0.3,1.05,-3.08-0.28,
0.14,0.92,0.3,1.33,-3.15-0.63,
0.14,0.92,0.3,1.26,-2.73-0.77,
0.14,0.93,0.3,1.33,-2.03-0.63,
0.14,0.92,0.3,1.4,-1.61-0.42,
0.14,0.92,0.3,1.4,-1.26-0.35,
0.14,0.92,0.3,1.47,-1.33-0.35,
0.14,0.92,0.3,1.4,-1.330.07,
0.14,0.92,0.3,1.47,-1.330.56,
0.14,0.92,0.3,1.4,-1.540.77,
0.14,0.92,0.3,1.68,-1.680.98,
0.14,0.92,0.3,1.96,-1.611.26,
0.14,0.92,0.29,1.96,-1.051.40,
0.14,0.93,0.3,1.96,-0.281.54,
0.14,0.93,0.29,2.1,0.421.68,
0.14,0.94,0.3,2.1,0.981.54,
0.13,0.94,0.29,1.89,1.401.19,
0.13,0.94,0.3,1.75,1.541.05,
0.13,0.93,0.29,1.68,1.261.12,
0.12,0.93,0.29,1.54,1.050.98,
0.12,0.93,0.29,1.61,0.700.98,
0.12,0.93,0.28,1.54,0.561.26,
0.11,0.93,0.28,1.54,0.211.12,
0.11,0.93,0.28,1.4,-0.141.19,
0.11,0.93,0.27,1.12,-0.631.40,
0.11,0.94,0.28,1.12,-1.331.26,
0.1,0.94,0.28,1.05,-1.611.26,
0.1,0.95,0.28,0.77,-2.241.12,
0.11,0.94,0.28,0.63,-2.870.49,
0.11,0.94,0.28,0.35,-3.220.35,
0.12,0.94,0.29,0.42,-3.220.21,
0.12,0.93,0.29,0.35,-3.29-0.07,
0.13,0.93,0.29,0.42,-3.220.00,
0.13,0.93,0.29,0.56,-3.080.07,
0.14,0.94,0.28,0.7,-3.150.07,
0.14,0.94,0.28,0.63,-3.220.07,
0.14,0.93,0.28,0.63,-3.150.21,
0.14,0.93,0.28,0.63,-2.870.28,
0.14,0.93,0.29,0.91,-2.380.42,
0.14,0.92,0.29,1.19,-1.820.42,
0.14,0.92,0.29,1.54,-0.980.70,
0.14,0.92,0.29,1.89,-0.280.91,
0.14,0.93,0.29,1.82,0.211.26,
0.14,0.93,0.29,1.54,0.211.33,
0.14,0.93,0.29,1.68,0.071.12,
0.13,0.93,0.29,1.82,0.071.33,
0.13,0.93,0.29,1.89,0.560.84,
0.13,0.93,0.29,1.89,0.980.63,
0.13,0.93,0.29,1.61,1.260.84,
0.13,0.93,0.29,1.54,1.400.49,
0.13,0.93,0.29,1.47,1.190.70,
0.13,0.93,0.29,1.4,1.190.70,
0.13,0.93,0.29,1.54,1.120.98,
0.13,0.93,0.29,1.47,1.260.70,
0.13,0.93,0.29,1.47,1.400.84,
0.13,0.93,0.28,1.54,1.120.91,
0.13,0.93,0.28,1.54,0.981.33,
0.13,0.93,0.28,1.33,0.841.54,
0.12,0.93,0.28,1.19,0.701.75,
0.12,0.93,0.28,1.4,0.562.10,
0.12,0.94,0.28,1.54,0.282.24,
0.12,0.94,0.28,1.19,0.212.03,
0.12,0.94,0.28,0.91,0.211.61,
0.12,0.94,0.28,0.56,0.001.40,
0.12,0.94,0.28,0.35,-0.351.40,
0.12,0.93,0.28,0.28,-0.701.75,
0.12,0.93,0.28,0.56,-0.771.61,
0.12,0.93,0.28,0.7,-0.631.61,
0.11,0.93,0.28,0.91,-0.561.40,
0.11,0.93,0.27,1.12,-0.630.56,
0.11,0.93,0.27,1.47,-0.700.21,
0.11,0.93,0.27,1.47,-0.770.00,
0.12,0.93,0.28,1.4,-0.84-0.56,
0.12,0.93,0.28,1.33,-0.98-0.70,
0.13,0.93,0.28,0.91,-1.05-0.84,
0.13,0.94,0.28,0.7,-1.33-0.42,
0.13,0.93,0.28,0.63,-1.75-0.07,
0.13,0.93,0.28,0.63,-2.240.21,
0.13,0.93,0.28,0.63,-2.310.21,
0.13,0.93,0.28,0.63,-2.310.49,
0.14,0.93,0.29,0.98,-1.680.14,
0.14,0.92,0.29,0.91,-1.050.07,
0.15,0.92,0.29,0.98,-0.280.14,
0.15,0.92,0.29,1.05,0.280.35,
0.15,0.93,0.29,1.05,0.490.00,
0.14,0.93,0.29,1.12,0.770.07,
0.14,0.93,0.29,1.05,0.490.28,
0.13,0.93,0.29,1.05,0.420.21,
0.13,0.93,0.29,1.19,-0.070.77,
0.12,0.93,0.29,1.4,-0.630.42,
0.12,0.93,0.29,1.54,-0.980.56,
0.12,0.94,0.29,1.33,-1.470.63,
0.12,0.94,0.29,1.19,-1.820.35,
0.12,0.93,0.29,1.05,-1.960.42,
0.12,0.93,0.28,1.05,-1.890.63,
0.12,0.94,0.29,0.77,-1.750.63,
0.12,0.94,0.29,0.56,-1.820.28,
0.12,0.94,0.29,0.56,-2.100.35,
0.12,0.93,0.29,0.56,-2.520.21,
0.12,0.93,0.29,0.63,-2.73-0.28,
0.13,0.93,0.29,0.7,-2.94-0.35,
0.13,0.93,0.29,0.77,-2.73-0.14,
0.13,0.93,0.29,0.63,-2.17-0.21,
0.13,0.93,0.29,0.56,-1.890.28,
0.13,0.93,0.28,0.42,-1.610.49,
0.13,0.93,0.28,0.49,-1.470.84,
0.13,0.93,0.28,0.56,-1.260.84,
0.13,0.93,0.29,0.63,-0.910.35,
0.14,0.93,0.29,0.63,-0.700.21,
0.14,0.93,0.29,0.84,0.070.00,
0.14,0.93,0.29,0.98,0.63-0.07,
0.14,0.93,0.29,1.12,0.980.28,
0.13,0.93,0.28,1.19,1.260.42,
0.13,0.92,0.28,1.33,1.050.91,
0.13,0.92,0.28,1.33,0.630.63,
0.12,0.92,0.28,1.47,0.561.12,
0.13,0.92,0.28,1.82,0.700.91,
0.12,0.93,0.28,1.89,1.050.84,
0.13,0.93,0.28,1.75,1.260.98,
0.13,0.93,0.28,1.4,1.330.91,
0.13,0.94,0.28,1.05,1.190.98,
0.13,0.93,0.28,0.77,0.701.75,
0.12,0.93,0.28,0.42,-0.071.82,
0.11,0.93,0.28,0.35,-0.491.89,
0.11,0.93,0.28,0.49,-0.911.96,
0.11,0.93,0.28,0.35,-0.911.40,
0.11,0.93,0.28,0.49,-0.771.40,
0.11,0.93,0.29,0.28,-0.561.05,
0.11,0.94,0.26,0.56,-0.351.05,
0.11,0.94,0.26,0.42,-0.491.33,
0.11,0.94,0.26,0.49,-0.770.98,
0.11,0.94,0.27,0.42,-0.981.47,
0.11,0.94,0.26,0.35,-1.051.54,
0.11,0.94,0.26,0.35,-1.051.33,
0.11,0.94,0.26,0.28,-1.051.33,
0.11,0.94,0.26,0.28,-0.981.19,
0.11,0.94,0.26,0.28,-0.981.05,
0.11,0.94,0.26,0.35,-1.120.84,
0.11,0.93,0.26,0.56,-0.910.35,
0.11,0.94,0.26,0.84,-0.910.70,
0.11,0.94,0.26,0.91,-0.700.49,
0.11,0.94,0.26,0.77,-0.840.70,
0.11,0.94,0.27,0.56,-0.770.56,
0.11,0.94,0.27,0.56,-0.840.70,
0.11,0.94,0.27,0.49,-1.050.63,
0.12,0.94,0.27,0.28,-1.050.70,
0.12,0.94,0.27,0.21,-1.120.77,
0.12,0.94,0.26,0.14,-1.401.05,
0.12,0.94,0.26,0.14,-1.121.12,
0.12,0.94,0.26,0.07,-1.261.26,
0.12,0.93,0.26,0.21,-0.980.98,
0.12,0.93,0.26,0.35,-0.701.40,
0.12,0.93,0.27,0.7,-0.561.05,
0.12,0.94,0.27,0.91,-0.351.26,
0.12,0.94,0.27,0.98,-0.211.26,
0.12,0.94,0.27,0.98,-0.281.12,
0.12,0.93,0.27,0.84,-0.211.33,
0.12,0.94,0.27,0.77,-0.281.19,
0.12,0.94,0.27,0.77,-0.281.33,
0.12,0.94,0.27,0.63,-0.281.47,
0.11,0.94,0.27,0.42,-0.211.26,
0.11,0.94,0.26,0.14,-0.351.61,
0.11,0.94,0.26,0.28,-0.351.47,
0.11,0.94,0.27,0.28,-0.351.26,
0.11,0.94,0.27,0.56,-0.211.68,
0.11,0.94,0.27,0.63,-0.071.33,
0.11,0.94,0.27,0.77,-0.141.47,
0.11,0.94,0.26,0.63,-0.281.54,
0.11,0.94,0.26,0.84,-0.561.40,
0.11,0.94,0.26,0.77,-0.701.26,
0.11,0.94,0.26,0.77,-0.771.61,
0.11,0.94,0.26,0.91,-0.701.54,
0.11,0.94,0.26,0.84,-0.770.91,
0.11,0.94,0.26,0.91,-0.701.19,
0.1,0.94,0.26,0.7,-0.770.91,
0.11,0.94,0.26,0.77,-0.980.84,
0.11,0.94,0.26,0.7,-1.050.84,
0.11,0.94,0.26,0.7,-1.191.26,
0.11,0.94,0.26,0.7,-1.050.91,
0.11,0.94,0.26,0.49,-1.260.91,
0.11,0.94,0.26,0.35,-1.261.05,
0.12,0.94,0.26,0.28,-1.400.91,
0.11,0.94,0.26,0.14,-1.330.91,
0.12,0.94,0.26,0.07,-1.121.12,
0.12,0.94,0.26,0.21,-1.050.98,
0.12,0.94,0.26,0.35,-0.700.77,
0.12,0.94,0.26,0.49,-0.490.56,
0.12,0.94,0.26,0.49,-0.350.70,
0.12,0.94,0.26,0.63,-0.420.56,
0.12,0.94,0.26,0.56,-0.420.91,
0.12,0.93,0.26,0.7,-0.560.70,
0.12,0.93,0.26,0.63,-0.490.84,
0.12,0.93,0.26,0.91,-0.491.05,
0.12,0.93,0.26,1.19,-0.560.98,
0.11,0.93,0.27,1.12,-0.281.26,
0.11,0.94,0.27,1.19,-0.211.12,
0.11,0.94,0.26,1.12,-0.350.84,
0.11,0.94,0.27,0.98,-0.141.26,
0.11,0.94,0.27,0.7,-0.070.91,
0.11,0.94,0.27,0.56,-0.210.77,
0.11,0.94,0.27,0.42,-0.351.05,
0.11,0.94,0.27,0.28,-0.491.19,
0.11,0.94,0.27,0.35,-0.631.05,
0.11,0.94,0.27,0.28,-0.841.12,
0.11,0.94,0.27,0.35,-0.981.33,
0.11,0.94,0.26,0.49,-1.191.19,
0.11,0.93,0.26,0.63,-1.050.77,
0.11,0.93,0.27,0.84,-1.190.77,
0.11,0.93,0.27,0.84,-0.910.77,
0.12,0.93,0.27,0.98,-0.700.63,
0.12,0.93,0.27,1.19,-0.490.77,
0.12,0.93,0.27,1.33,-0.350.35,
0.12,0.94,0.28,1.12,-0.070.98,
0.12,0.94,0.27,1.26,0.210.91,
0.12,0.94,0.27,1.12,0.281.05,
0.12,0.94,0.27,0.98,0.491.19,
0.12,0.94,0.27,1.05,0.351.47,
0.11,0.94,0.26,1.05,0.211.47,
0.11,0.93,0.27,1.12,0.351.40,
0.11,0.94,0.27,1.33,0.351.40,
0.11,0.94,0.27,1.26,0.351.54,
0.11,0.94,0.27,1.33,0.421.75,
0.11,0.94,0.27,1.47,0.631.61,
0.11,0.94,0.27,1.47,0.701.47,
0.12,0.94,0.26,1.4,0.631.19,
0.12,0.94,0.26,1.47,0.701.12,
0.12,0.94,0.26,1.33,0.630.98,
0.11,0.94,0.26,1.26,0.700.98,
0.11,0.94,0.26,1.4,0.700.84,
0.11,0.94,0.26,1.4,0.560.70,
0.11,0.94,0.26,1.4,0.490.91,
0.11,0.94,0.26,1.47,0.491.05,
0.11,0.94,0.26,1.54,0.421.05,
0.11,0.94,0.26,1.4,0.281.19,
0.11,0.94,0.26,1.47,0.071.05,
0.11,0.94,0.26,1.33,0.141.26,
0.11,0.94,0.26,1.33,-0.071.33,
0.11,0.94,0.26,1.47,-0.281.40,
0.11,0.94,0.26,1.4,-0.281.26,
0.11,0.94,0.26,1.33,-0.351.26,
0.11,0.94,0.26,1.26,-0.281.05,
0.11,0.94,0.26,1.19,-0.350.98,
0.11,0.94,0.27,1.12,-0.350.91,
0.11,0.94,0.26,0.91,-0.350.49,
0.11,0.94,0.26,0.91,-0.490.63,
0.11,0.95,0.26,0.7,-0.490.77,
0.11,0.95,0.26,0.49,-0.630.56,
0.12,0.94,0.26,0.49,-0.630.70,
0.12,0.94,0.26,0.63,-0.770.84,
0.11,0.93,0.26,0.7,-1.050.98,
0.11,0.93,0.26,0.98,-1.190.70,
0.11,0.93,0.26,1.12,-1.190.77,
0.12,0.94,0.26,1.12,-1.191.19,
0.11,0.94,0.26,1.26,-1.120.70,
0.12,0.94,0.26,1.12,-0.910.91,
0.11,0.94,0.26,1.12,-0.770.98,
0.11,0.94,0.26,0.98,-0.700.77,
0.11,0.94,0.26,0.98,-0.910.70,
0.11,0.94,0.26,0.91,-1.121.12,
0.11,0.94,0.26,0.7,-0.981.05,
0.11,0.94,0.26,0.7,-1.120.77,
0.12,0.93,0.27,0.63,-0.981.12,
0.12,0.94,0.27,0.77,-0.840.91,
0.12,0.94,0.27,0.91,-0.770.49,
0.12,0.94,0.27,0.77,-0.630.98,
0.12,0.94,0.26,0.91,-0.350.91,
0.11,0.94,0.26,0.84,-0.420.91,
0.11,0.94,0.26,0.77,-0.280.91,
0.11,0.94,0.26,0.77,-0.350.77,
0.11,0.94,0.26,0.77,-0.280.77,
0.11,0.93,0.27,0.84,-0.490.84,
0.12,0.94,0.26,0.91,-0.350.84,
0.12,0.93,0.26,1.05,-0.420.70,
0.11,0.94,0.26,1.05,-0.280.91,
0.12,0.94,0.26,1.12,-0.070.42,
0.11,0.94,0.26,1.05,-0.070.91,
0.11,0.94,0.26,1.05,-0.140.98,
0.12,0.94,0.26,0.91,-0.280.84,
0.12,0.94,0.26,0.91,-0.420.49,
0.11,0.94,0.26,0.7,-0.560.84,
0.12,0.94,0.26,0.56,-0.700.84,
0.11,0.94,0.26,0.63,-0.980.70,
0.11,0.94,0.26,0.63,-0.840.77,
0.12,0.94,0.26,0.77,-0.981.05,
0.11,0.94,0.26,0.98,-0.980.77,
0.11,0.94,0.26,0.91,-0.981.12,
0.11,0.94,0.26,1.05,-0.770.84,
0.11,0.94,0.26,1.12,-0.560.49,
0.11,0.94,0.26,0.98,-0.490.91,
0.11,0.94,0.26,0.91,-0.420.91,
0.11,0.94,0.26,1.05,-0.490.84,
0.11,0.94,0.27,1.05,-0.420.56,
0.11,0.94,0.27,1.05,-0.210.77,
0.11,0.94,0.27,1.19,-0.210.77,
0.11,0.94,0.27,1.12,-0.140.63,
0.11,0.94,0.27,1.12,17.850.84,
0.11,0.94,0.27,1.12,-0.140.63,
0.11,0.94,0.27,1.05,-0.210.70,
0.11,0.94,0.27,1.05,-0.280.91,
0.11,0.94,0.26,1.12,-0.351.05,
0.12,0.94,0.26,1.19,-0.280.91,
0.11,0.94,0.26,1.26,-0.281.05,
0.11,0.94,0.26,1.33,-0.210.98,
0.11,0.94,0.26,1.12,-0.141.33,
0.11,0.94,0.26,1.26,-0.071.05,
0.11,0.94,0.26,1.19,0.001.05,
0.11,0.94,0.27,1.12,0.001.12,
0.11,0.94,0.26,1.26,-0.071.05,
0.11,0.94,0.26,1.19,-0.421.26,
0.11,0.94,0.27,0.98,-0.421.33,
0.11,0.94,0.27,0.98,-0.631.12,
0.11,0.94,0.26,0.98,-0.630.98,
0.11,0.94,0.26,0.91,-0.701.05,
0.11,0.94,0.26,0.98,-0.841.26,
0.11,0.94,0.26,1.12,-0.840.84,
0.11,0.94,0.26,1.12,-0.770.63,
0.11,0.94,0.26,1.26,-0.630.49,
0.11,0.94,0.26,1.4,-0.280.49,
0.11,0.94,0.26,1.4,0.070.35,
0.12,0.94,0.26,1.4,0.210.63,
0.12,0.94,0.27,1.26,0.560.56,
0.12,0.94,0.27,1.26,0.490.84,
0.11,0.94,0.26,1.19,0.491.19,
0.11,0.94,0.26,1.12,0.351.12,
0.11,0.94,0.26,0.91,0.351.40,
0.11,0.94,0.26,0.84,0.141.54,
0.11,0.94,0.26,0.84,0.141.12,
0.11,0.94,0.26,0.91,-0.141.40,
0.11,0.94,0.26,1.05,-0.141.12,
0.11,0.94,0.26,1.19,-0.211.33,
0.11,0.94,0.26,1.33,-0.141.12,
0.11,0.94,0.26,1.19,-0.211.26,
0.11,0.94,0.26,1.05,-0.141.40,
0.1,0.94,0.26,1.05,-0.211.47,
0.11,0.94,0.26,0.98,-0.281.19,
0.11,0.94,0.26,1.05,-0.420.91,
0.11,0.94,0.26,0.98,-0.420.70,
0.11,0.94,0.26,0.91,-0.700.77,
0.11,0.94,0.26,0.84,-0.700.56,
0.11,0.94,0.26,0.63,-0.840.84,
0.11,0.94,0.26,0.7,-0.981.19,
0.11,0.94,0.26,0.84,-0.910.84,
0.11,0.94,0.26,0.77,-0.630.91,
0.11,0.94,0.26,0.84,-0.560.98,
0.12,0.94,0.27,0.91,-0.420.63,
0.12,0.94,0.26,0.98,-0.350.70,
0.12,0.94,0.26,0.84,-0.350.98,
0.12,0.94,0.26,0.77,-0.350.91,
0.12,0.93,0.26,0.98,-0.281.12,
0.12,0.94,0.26,1.12,-0.281.26,
0.11,0.94,0.26,1.12,-0.211.19,
0.11,0.94,0.26,1.26,-0.141.33,
0.11,0.94,0.26,1.05,-0.141.54,
0.11,0.94,0.26,0.91,-0.351.82,
0.11,0.94,0.26,0.7,-0.281.82,
0.11,0.94,0.26,0.42,-0.561.54,
0.11,0.94,0.26,0.21,-0.631.61,
0.11,0.94,0.26,0.35,-0.701.61,
0.11,0.94,0.26,0.42,-0.771.47,
0.11,0.94,0.26,0.35,-0.701.33,
0.11,0.94,0.26,0.42,-0.631.19,
0.11,0.94,0.26,0.56,-0.770.98,
0.11,0.94,0.27,0.84,-0.770.77,
0.11,0.94,0.27,1.12,-0.630.42,
0.11,0.94,0.26,1.4,-0.420.28,
0.11,0.94,0.26,1.4,-0.210.07,
0.12,0.94,0.26,1.19,-0.070.35,
0.12,0.94,0.26,0.98,0.070.49,
0.12,0.94,0.26,0.84,0.070.63,
0.12,0.94,0.26,0.7,-0.070.98,
0.12,0.94,0.26,0.49,-0.351.47,
0.11,0.94,0.26,0.63,-0.631.54,
0.11,0.94,0.26,0.63,-0.701.75,
0.11,0.94,0.27,0.7,-0.771.68,
0.11,0.94,0.27,0.84,-0.351.40,
0.11,0.94,0.27,0.77,-0.421.26,
0.12,0.94,0.26,0.7,-0.071.40,
0.12,0.94,0.26,0.56,-0.141.19,
0.12,0.94,0.26,0.63,-0.211.19,
0.12,0.94,0.26,0.7,-0.211.40,
0.11,0.93,0.26,0.77,-0.210.98,
0.11,0.94,0.26,0.84,-0.280.70,
0.11,0.94,0.26,0.91,-0.421.40,
0.11,0.94,0.26,0.91,-0.421.26,
0.11,0.94,0.27,1.05,-0.210.98,
0.12,0.94,0.27,1.12,0.001.12,
0.12,0.94,0.27,1.05,0.001.05,
0.12,0.94,0.27,0.98,0.211.19,
0.12,0.94,0.27,0.84,0.421.12,
0.12,0.94,0.27,0.63,0.631.19,
0.12,0.94,0.26,0.56,0.701.47,
0.11,0.94,0.26,0.49,0.701.68,
0.11,0.94,0.26,0.56,0.561.82,
0.11,0.94,0.26,0.42,0.561.96,
0.11,0.94,0.26,0.49,0.351.89,
0.11,0.94,0.26,0.77,0.351.54,
0.11,0.94,0.26,0.7,0.211.75,
0.11,0.94,0.26,0.84,0.211.68,
0.11,0.94,0.26,0.84,0.071.33,
0.11,0.94,0.26,0.77,0.001.54,
0.11,0.94,0.26,0.84,0.001.47,
0.11,0.94,0.26,0.77,-0.141.26,
0.1,0.94,0.26,0.63,-0.281.12,
0.1,0.94,0.26,0.63,-0.351.19,
0.11,0.94,0.26,0.77,-0.490.91,
0.11,0.94,0.26,0.7,-0.421.05,
0.11,0.94,0.26,0.77,-0.700.91,
0.11,0.94,0.26,0.77,-0.700.77,
0.12,0.94,0.27,0.63,-0.770.98,
0.12,0.94,0.26,0.63,-0.770.91,
0.12,0.94,0.26,0.49,-0.840.98,
0.12,0.94,0.26,0.56,-0.911.05,
0.12,0.94,0.26,0.42,-0.701.12,
0.11,0.94,0.26,0.49,-0.420.98,
0.12,0.94,0.27,0.56,-0.281.33,
0.12,0.94,0.27,0.63,-0.211.19,
0.12,0.94,0.27,0.7,-0.281.33,
0.12,0.94,0.27,0.63,-0.281.12,
0.12,0.94,0.27,0.63,-0.211.40,
0.12,0.94,0.26,0.84,-0.281.19,
0.11,0.94,0.26,0.98,-0.351.26,
0.11,0.94,0.26,0.84,-0.421.26,
0.11,0.94,0.26,0.77,-0.281.12,
0.11,0.94,0.26,0.77,-0.141.05,
0.11,0.94,0.26,0.77,-0.141.19,
0.11,0.94,0.27,0.7,-0.351.12,
0.11,0.94,0.26,0.7,-0.490.91,
0.11,0.94,0.26,0.56,-0.911.05,
0.11,0.94,0.27,0.63,-1.050.98,
0.11,0.93,0.27,0.84,-1.260.77,
0.12,0.93,0.27,0.91,-0.910.84,
0.12,0.94,0.27,0.98,-0.840.91,
0.12,0.94,0.27,0.84,-0.560.84,
0.12,0.94,0.27,0.77,-0.561.19,
0.12,0.94,0.26,0.63,-0.421.61,
0.12,0.94,0.27,0.56,-0.421.54,
0.12,0.94,0.27,0.42,-0.351.89,
0.12,0.94,0.27,0.35,-0.421.68,
0.11,0.94,0.26,0.28,-0.561.26,
0.11,0.93,0.27,0.28,-0.701.40,
0.11,0.93,0.26,0.21,-0.491.05,
0.11,0.93,0.26,0.42,-0.420.98,
0.12,0.93,0.26,0.7,-0.421.33,
0.12,0.93,0.27,0.91,-0.211.40,
0.12,0.94,0.27,1.12,-0.071.33,
0.11,0.94,0.27,1.26,-0.141.33,
0.11,0.94,0.27,1.19,-0.071.05,
0.11,0.94,0.27,1.05,0.070.91,
0.11,0.95,0.27,0.84,0.070.77,
0.11,0.94,0.26,0.49,0.140.84,
0.11,0.94,0.26,0.49,-0.210.70,
0.11,0.94,0.26,0.49,-0.211.05,
0.11,0.93,0.26,0.56,-0.561.19,
0.11,0.93,0.26,0.84,-0.490.84,
0.11,0.94,0.27,0.98,-0.491.12,
0.12,0.94,0.27,1.05,-0.141.19,
0.11,0.94,0.27,0.98,-0.141.26,
0.12,0.94,0.27,0.91,0.141.61,
0.12,0.94,0.27,0.77,0.071.68,
0.12,0.94,0.27,0.63,-0.071.61,
0.12,0.94,0.26,0.56,-0.141.82,
0.12,0.94,0.27,0.49,-0.071.68,
0.12,0.94,0.26,0.35,0.001.61,
0.11,0.94,0.27,0.28,0.001.75,
0.11,0.94,0.26,0.35,0.071.26,
0.11,0.93,0.26,0.56,0.211.26,
0.11,0.94,0.26,0.7,0.141.26,
0.11,0.94,0.26,0.98,0.211.19,
0.11,0.94,0.26,1.05,0.281.12,
0.11,0.94,0.26,1.12,0.071.05,
0.11,0.94,0.26,1.05,-0.280.77,
0.11,0.94,0.26,1.05,-0.490.70,
0.11,0.94,0.26,1.12,-0.630.98,
0.11,0.94,0.26,0.98,-0.910.49,
0.11,0.94,0.26,0.98,-0.910.49,
0.12,0.94,0.26,0.84,-1.120.63,
0.12,0.94,0.27,0.63,-1.050.84,
0.12,0.94,0.27,0.56,-0.840.84,
0.12,0.94,0.27,0.49,-0.631.12,
0.12,0.94,0.27,0.35,-0.771.33,
0.11,0.94,0.27,0.42,-0.701.26,
0.12,0.94,0.27,0.42,-0.841.61,
0.12,0.94,0.27,0.42,-0.981.47,
0.12,0.93,0.26,0.35,-0.911.26,
0.12,0.93,0.26,0.35,-1.261.33,
0.12,0.93,0.26,0.49,-1.191.47,
0.12,0.93,0.27,0.7,-1.051.47,
0.12,0.93,0.27,0.84,-0.631.26,
0.12,0.94,0.27,1.05,-0.351.19,
0.12,0.94,0.27,1.12,-0.071.05,
0.12,0.94,0.27,1.12,0.141.19,
0.12,0.94,0.27,0.98,0.351.26,
0.12,0.94,0.27,0.77,0.350.98,
0.12,0.94,0.27,0.91,0.210.98,
0.12,0.94,0.27,0.84,0.071.33,
0.12,0.94,0.27,0.84,0.071.12,
0.12,0.94,0.27,0.7,0.071.68,
0.12,0.94,0.27,0.7,0.141.61,
0.11,0.94,0.27,0.7,0.351.96,
0.12,0.94,0.27,0.7,0.492.17,
0.12,0.94,0.26,0.7,0.562.17,
0.11,0.94,0.26,0.63,0.421.96,
0.11,0.94,0.26,0.49,0.282.17,
0.11,0.94,0.26,0.49,0.212.10,
0.11,0.94,0.26,0.56,0.141.68,
0.11,0.94,0.26,0.49,0.281.75,
0.11,0.94,0.26,0.7,0.141.40,
0.11,0.94,0.27,0.7,0.351.12,
0.11,0.94,0.27,0.63,0.210.77,
0.11,0.94,0.26,0.56,-0.140.56,
0.12,0.94,0.26,0.7,-0.490.35,
0.12,0.94,0.26,0.63,-0.490.35,
0.11,0.94,0.26,0.56,-0.770.49,
0.11,0.94,0.26,0.7,-0.980.49,
0.11,0.94,0.26,0.63,-1.190.49,
0.11,0.94,0.26,0.77,-1.400.84,
0.11,0.94,0.26,0.84,-1.470.35,
0.12,0.94,0.26,0.63,-1.680.77,
0.12,0.94,0.27,0.49,-1.890.91,
0.12,0.94,0.27,0.56,-1.890.98,
0.13,0.94,0.27,0.49,-1.821.26,
0.13,0.94,0.27,0.63,-1.470.98,
0.13,0.94,0.27,0.42,-0.911.19,
0.13,0.93,0.27,0.56,-0.561.05,
0.13,0.94,0.27,0.63,-0.281.12,
0.12,0.93,0.27,0.63,-0.211.12,
0.12,0.93,0.27,0.63,-0.281.26,
0.12,0.93,0.27,0.7,-0.281.12,
0.12,0.93,0.27,0.91,-0.281.33,
0.12,0.93,0.27,0.84,0.001.54,
0.12,0.94,0.27,0.77,0.281.61,
0.12,0.94,0.27,0.7,0.561.75,
0.12,0.94,0.27,0.49,0.631.96,
0.12,0.94,0.27,0.42,0.631.82,
0.12,0.94,0.27,0.49,0.422.03,
0.11,0.94,0.26,0.49,0.282.10,
0.11,0.94,0.27,0.7,-0.072.03,
0.11,0.94,0.27,0.77,0.001.82,
0.11,0.94,0.27,0.77,0.141.26,
0.11,0.94,0.27,0.91,0.281.33,
0.11,0.94,0.27,0.91,0.490.98,
0.11,0.94,0.27,0.84,0.490.77,
0.12,0.94,0.27,0.7,0.490.77,
0.12,0.94,0.27,0.84,0.490.98,
0.12,0.94,0.26,0.98,0.280.84,
0.12,0.94,0.27,0.7,-0.071.19,
0.12,0.94,0.27,0.84,-0.491.19,
0.12,0.93,0.26,0.77,-0.631.12,
0.12,0.94,0.27,0.77,-0.631.40,
0.12,0.94,0.27,0.77,-0.420.84,
0.12,0.94,0.27,0.84,-0.350.98,
0.12,0.94,0.27,0.63,-0.140.84,
0.12,0.94,0.27,0.56,-0.071.05,
0.12,0.94,0.26,0.56,0.001.12,
0.12,0.94,0.26,0.63,0.001.05,
0.12,0.94,0.26,0.56,0.071.05,
0.12,0.93,0.26,0.77,0.070.98,
0.11,0.94,0.26,1.05,-0.140.91,
0.12,0.93,0.27,1.19,-0.070.91,
0.12,0.93,0.27,1.47,0.000.63,
0.12,0.94,0.27,1.54,0.210.49,
0.12,0.94,0.27,1.61,0.280.35,
0.12,0.94,0.27,1.4,0.560.56,
0.12,0.94,0.27,1.33,0.490.70,
0.12,0.94,0.27,0.98,0.560.42,
0.12,0.94,0.27,0.77,0.420.49,
0.12,0.93,0.26,0.56,0.280.91,
0.12,0.93,0.26,0.7,0.070.84,
0.12,0.94,0.26,0.7,0.000.84,
0.11,0.94,0.26,0.7,-0.071.05,
0.12,0.94,0.27,0.84,-0.140.98,
0.12,0.94,0.27,0.91,0.141.05,
0.12,0.94,0.27,0.84,0.350.84,
0.12,0.94,0.27,0.63,0.490.98,
0.12,0.94,0.27,0.49,0.420.91,
0.12,0.94,0.27,0.42,0.280.49,
0.12,0.94,0.27,0.35,0.210.91,
0.12,0.93,0.27,0.35,-0.070.98,
0.12,0.93,0.27,0.56,-0.280.91,
0.11,0.93,0.27,0.98,-0.070.84,
0.12,0.93,0.27,1.12,-0.071.05,
0.12,0.94,0.27,1.26,-0.071.05,
0.12,0.93,0.27,1.19,0.000.77,
0.12,0.94,0.27,1.19,-0.071.05,
0.11,0.94,0.28,1.12,0.000.91,
0.12,0.94,0.28,0.84,0.001.12,
0.12,0.94,0.27,0.84,-0.281.05,
0.12,0.94,0.27,0.77,-0.350.98,
0.12,0.94,0.27,0.7,-0.421.05,
0.12,0.94,0.27,0.84,-0.281.12,
0.12,0.93,0.27,0.84,-0.351.12,
0.12,0.93,0.27,0.91,-0.141.26,
0.12,0.93,0.27,0.91,0.141.19,
0.12,0.93,0.28,1.05,0.281.12,
0.12,0.94,0.27,1.05,0.491.19,
0.12,0.94,0.27,0.98,0.561.19,
0.12,0.94,0.27,0.98,0.841.40,
0.12,0.94,0.27,0.91,0.701.54,
0.12,0.94,0.27,0.91,0.491.33,
0.11,0.94,0.27,0.98,0.211.47,
0.11,0.93,0.26,1.05,0.211.61,
0.11,0.93,0.27,1.12,0.211.19,
0.11,0.93,0.27,1.05,0.211.40,
0.11,0.94,0.27,1.19,0.211.40,
0.11,0.94,0.27,1.05,0.211.75,
0.12,0.94,0.27,1.05,0.351.26,
0.12,0.94,0.27,0.84,0.491.19,
0.12,0.94,0.27,0.84,0.631.05,
0.12,0.94,0.27,0.77,0.911.12,
0.12,0.94,0.26,0.77,0.701.19,
0.11,0.94,0.26,0.7,0.491.26,
0.11,0.94,0.26,0.84,0.211.40,
0.11,0.94,0.26,0.84,0.001.61,
0.11,0.94,0.26,0.84,0.001.54,
0.11,0.94,0.27,0.98,0.001.75,
0.11,0.94,0.27,0.84,0.071.33,
0.11,0.94,0.27,0.77,0.141.33,
0.11,0.94,0.27,0.49,0.351.33,
0.12,0.94,0.27,0.56,0.141.26,
0.12,0.94,0.27,0.49,0.071.19,
0.12,0.94,0.26,0.42,-0.211.19,
0.12,0.93,0.26,0.49,-0.491.26,
0.11,0.94,0.26,0.63,-0.631.12,
0.11,0.94,0.26,0.91,-0.561.26,
0.11,0.94,0.26,0.98,-0.421.12,
0.11,0.94,0.27,0.91,-0.281.19,
0.11,0.94,0.27,0.91,-0.281.12,
0.11,0.94,0.27,0.77,-0.070.77,
0.11,0.94,0.27,0.77,0.000.77,
0.12,0.94,0.27,0.7,-0.070.98,
0.12,0.94,0.27,0.63,-0.140.84,
0.12,0.94,0.27,0.63,-0.350.84,
0.12,0.93,0.27,0.49,-0.420.91,
0.12,0.94,0.27,0.63,-0.630.70,
0.12,0.93,0.27,0.49,-0.490.84,
0.12,0.94,0.27,0.49,-0.560.98,
0.12,0.93,0.27,0.56,-0.561.12,
0.12,0.94,0.27,0.63,-0.420.91,
0.12,0.94,0.27,0.77,-0.350.98,
0.12,0.94,0.27,0.7,-0.211.05,
0.12,0.94,0.27,0.77,-0.210.98,
0.12,0.93,0.27,0.7,-0.071.12,
0.12,0.93,0.27,0.7,0.001.19,
0.12,0.93,0.27,0.84,-0.070.84,
0.12,0.93,0.27,1.05,-0.211.05,
0.12,0.94,0.27,1.12,-0.421.19,
0.11,0.94,0.27,1.05,-0.491.05,
0.11,0.94,0.27,0.98,-0.490.91,
0.11,0.94,0.27,0.98,-0.700.98,
0.12,0.94,0.28,0.91,-0.420.77,
0.12,0.94,0.28,0.91,-0.210.91,
0.12,0.94,0.27,0.77,0.210.91,
0.12,0.94,0.27,0.84,0.280.77,
0.12,0.93,0.27,0.84,0.210.56,
0.12,0.94,0.27,0.98,0.210.98,
0.12,0.94,0.27,0.98,0.001.05,
0.12,0.93,0.27,0.98,-0.280.84,
0.12,0.93,0.27,0.98,-0.281.26,
0.11,0.93,0.27,1.4,-0.631.12,
0.12,0.93,0.27,1.26,-0.491.05,
0.12,0.93,0.27,1.19,-0.421.12,
0.12,0.94,0.27,1.33,-0.210.70,
0.12,0.94,0.27,1.12,-0.070.49,
0.12,0.94,0.27,0.98,0.140.91,
0.12,0.94,0.27,0.98,0.000.98,
0.12,0.94,0.27,1.05,-0.140.91,
0.12,0.94,0.27,0.84,-0.141.47,
0.12,0.94,0.27,0.91,-0.211.12,
0.12,0.94,0.27,0.91,-0.141.68,
0.12,0.94,0.27,1.12,-0.351.33,
0.12,0.93,0.27,1.26,-0.211.47,
0.12,0.93,0.27,1.33,-0.211.33,
0.11,0.93,0.27,1.33,-0.141.33,
0.11,0.94,0.27,1.47,-0.071.19,
0.11,0.94,0.27,1.33,-0.210.98,
0.12,0.94,0.27,1.26,-0.210.77,
0.12,0.94,0.27,1.26,-0.140.77,
0.11,0.94,0.27,1.26,-0.070.70,
0.12,0.94,0.27,1.19,0.000.56,
0.12,0.94,0.27,1.26,0.000.35,
0.12,0.94,0.27,1.26,0.000.42,
0.12,0.94,0.27,1.12,-0.140.98,
0.12,0.94,0.27,1.05,-0.350.70,
0.12,0.94,0.27,1.12,-0.350.70,
0.11,0.94,0.26,0.98,-0.351.26,
0.11,0.94,0.26,0.98,-0.421.33,
0.12,0.94,0.27,1.12,-0.561.12,
0.11,0.94,0.27,1.05,-0.561.40,
0.12,0.94,0.27,1.05,-0.491.26,
0.12,0.94,0.27,0.98,-0.561.26,
0.12,0.94,0.27,0.91,-0.561.05,
0.12,0.94,0.27,0.84,-0.491.12,
0.11,0.94,0.27,0.77,-0.561.26,
0.11,0.94,0.27,0.63,-0.560.98,
0.11,0.94,0.27,0.7,-0.631.05,
0.11,0.94,0.26,0.63,-0.630.91,
0.12,0.93,0.27,0.77,-0.560.70,
0.12,0.93,0.26,0.84,-0.700.77,
0.12,0.93,0.27,0.91,-0.490.70,
0.12,0.94,0.27,0.84,-0.490.84,
0.12,0.94,0.27,0.91,-0.491.05,
0.12,0.94,0.27,1.05,-0.560.70,
0.12,0.94,0.27,0.98,-0.420.84,
0.12,0.94,0.27,0.91,-0.350.91,
0.12,0.94,0.27,1.05,-0.630.84,
0.11,0.93,0.27,1.12,-0.631.19,
0.11,0.94,0.27,1.12,-0.630.91,
0.11,0.94,0.27,1.19,-0.630.84,
0.11,0.94,0.27,1.12,-0.490.77,
0.11,0.94,0.27,1.05,-0.560.77,
0.11,0.94,0.27,1.05,-0.560.77,
0.11,0.94,0.27,0.98,-0.210.63,
0.12,0.94,0.27,1.05,-0.210.77,
0.12,0.94,0.27,1.19,-0.420.56,
0.11,0.94,0.27,1.19,-0.491.19,
0.11,0.94,0.27,1.19,-0.560.98,
0.11,0.94,0.27,1.19,-0.630.84,
0.11,0.94,0.27,1.19,-0.841.33,
0.11,0.94,0.27,1.05,-0.700.98,
0.11,0.94,0.27,0.91,-0.560.84,
0.11,0.94,0.27,0.7,-0.490.91,
0.11,0.94,0.27,0.56,-0.560.98,
0.11,0.94,0.27,0.63,-0.630.35,
0.11,0.94,0.27,0.7,-0.630.77,
0.11,0.94,0.27,0.7,-0.560.56,
0.12,0.93,0.27,0.77,-0.490.42,
0.12,0.93,0.27,0.84,-0.420.70,
0.12,0.93,0.27,1.05,-0.490.56,
0.12,0.93,0.27,1.33,-0.490.77,
0.12,0.94,0.27,1.47,-0.420.70,
0.12,0.94,0.27,1.61,-0.490.84,
0.12,0.94,0.27,1.61,-0.420.28,
0.12,0.94,0.27,1.4,-0.280.63,
0.12,0.94,0.27,1.26,-0.210.56,
0.12,0.93,0.27,1.19,0.000.42,
0.12,0.93,0.27,1.12,-0.070.91,
0.11,0.93,0.27,0.98,-0.070.91,
0.12,0.94,0.27,1.12,-0.070.98,
0.12,0.94,0.27,1.19,-0.071.33,
0.12,0.94,0.27,1.12,0.141.19,
0.11,0.94,0.27,1.26,0.141.19,
0.12,0.94,0.27,1.19,0.211.05,
0.11,0.93,0.27,1.05,0.140.98,
0.11,0.93,0.27,1.05,17.851.19,
0.11,0.93,0.27,1.05,-0.281.33,
0.11,0.94,0.27,1.12,-0.281.47,
0.11,0.94,0.27,1.05,-0.281.19,
0.11,0.94,0.27,1.12,-0.211.05,
0.11,0.94,0.27,1.12,-0.070.70,
0.11,0.94,0.27,0.98,0.070.91,
0.11,0.94,0.27,0.91,0.070.91,
0.11,0.94,0.27,1.05,-0.141.05,
0.11,0.94,0.27,0.91,-0.070.98,
0.11,0.94,0.26,0.98,-0.491.05,
0.11,0.94,0.26,0.91,-0.631.05,
0.11,0.93,0.27,0.98,-0.841.40,
0.11,0.94,0.27,0.98,-0.911.47,
0.11,0.94,0.27,1.05,-0.701.26,
0.11,0.94,0.27,0.98,-0.491.05,
0.11,0.94,0.27,0.84,-0.350.91,
0.11,0.94,0.27,0.7,-0.281.12,
0.12,0.94,0.27,0.7,-0.280.77,
0.12,0.94,0.27,0.7,-0.350.56,
0.12,0.94,0.27,0.77,-0.281.19,
0.12,0.94,0.27,0.77,-0.351.05,
0.12,0.94,0.26,0.91,-0.491.05,
0.11,0.94,0.26,0.84,-0.281.19,
0.11,0.93,0.26,0.91,-0.351.19,
0.11,0.93,0.26,1.12,-0.421.33,
0.11,0.94,0.26,0.98,-0.491.33,
0.11,0.94,0.26,0.91,-0.701.33,
0.11,0.94,0.26,0.98,-0.700.91,
0.11,0.94,0.27,0.91,-0.771.26,
0.12,0.94,0.27,0.77,-0.981.19,
0.12,0.94,0.27,0.63,-0.840.91,
0.12,0.94,0.27,0.42,-0.840.98,
0.12,0.94,0.27,0.42,-0.840.84,
0.12,0.94,0.27,0.35,-0.910.84,
0.12,0.94,0.27,0.35,-0.980.77,
0.11,0.93,0.26,0.56,-0.840.70,
0.11,0.94,0.27,0.63,-0.700.70,
0.12,0.94,0.27,0.84,-0.561.12,
0.11,0.94,0.27,1.05,-0.420.77,
0.12,0.94,0.27,0.98,-0.141.12,
0.12,0.94,0.27,0.91,-0.141.26,
0.11,0.94,0.27,0.7,-0.421.54,
0.11,0.94,0.27,0.91,-0.421.12,
0.12,0.94,0.27,0.91,-0.701.26,
0.12,0.94,0.27,0.77,-0.841.19,
0.11,0.94,0.27,0.77,-0.701.12,
0.11,0.94,0.27,0.63,-0.561.19,
0.11,0.94,0.27,0.56,-0.561.05,
0.11,0.94,0.27,0.63,-0.351.05,
0.11,0.94,0.27,0.63,-0.280.98,
0.11,0.94,0.27,0.77,0.070.84,
0.12,0.93,0.27,0.77,-0.070.98,
0.12,0.93,0.27,0.98,0.000.77,
0.12,0.94,0.27,1.05,-0.210.63,
0.12,0.93,0.27,1.12,-0.210.56,
0.11,0.93,0.27,1.12,-0.280.70,
0.11,0.93,0.27,1.12,-0.420.84,
0.11,0.94,0.27,1.05,-0.490.98,
0.11,0.94,0.27,1.12,-0.490.70,
0.11,0.94,0.27,0.98,-0.280.77,
0.11,0.94,0.27,0.84,-0.350.91,
0.11,0.94,0.27,0.77,-0.350.56,
0.11,0.94,0.27,0.7,-0.490.84,
0.11,0.93,0.27,0.7,-0.490.91,
0.11,0.94,0.27,0.77,-0.700.91,
0.11,0.94,0.27,0.84,-0.770.98,
0.11,0.94,0.27,0.77,-0.631.19,
0.11,0.94,0.27,0.84,-0.700.98,
0.12,0.94,0.27,0.77,-0.490.98,
0.12,0.94,0.27,0.91,-0.280.84,
0.11,0.94,0.27,0.91,-0.280.98,
0.11,0.94,0.27,0.98,-0.490.84,
0.11,0.94,0.26,0.98,-0.560.63,
0.11,0.94,0.26,0.98,-0.700.77,
0.11,0.93,0.26,0.91,-0.911.12,
0.11,0.94,0.27,0.98,-0.700.70,
0.11,0.94,0.27,0.84,-0.631.05,
0.11,0.94,0.27,0.84,-0.491.26,
0.12,0.94,0.27,0.84,-0.280.91,
0.12,0.94,0.27,0.77,-0.210.77,
0.12,0.94,0.27,0.63,-0.140.98,
0.12,0.94,0.27,0.7,-0.210.70,
0.12,0.93,0.27,0.7,-0.350.56,
0.12,0.93,0.27,0.84,-0.490.91,
0.12,0.93,0.27,0.98,-0.490.49,
0.11,0.93,0.27,1.47,-0.350.63,
0.11,0.93,0.27,1.68,-0.281.12,
0.11,0.94,0.27,1.75,0.210.70,
0.11,0.94,0.28,1.68,0.350.91,
0.12,0.94,0.28,1.47,0.420.84,
0.12,0.94,0.27,1.33,0.420.77,
0.12,0.94,0.27,1.12,0.140.77,
0.12,0.94,0.27,0.84,-0.280.91,
0.12,0.94,0.27,0.84,-0.491.05,
0.12,0.94,0.27,0.77,-0.771.33,
0.11,0.94,0.27,0.77,-0.771.40,
0.11,0.94,0.27,0.7,-0.561.40,
0.11,0.94,0.27,0.84,-0.281.40,
0.11,0.93,0.27,0.98,0.001.54,
0.12,0.93,0.27,1.12,0.491.05,
0.12,0.94,0.27,1.19,0.560.98,
0.12,0.94,0.27,1.26,0.631.54,
0.12,0.94,0.27,1.33,0.560.98,
0.12,0.94,0.26,1.33,0.421.26,
0.12,0.94,0.27,1.4,0.281.33,
0.11,0.93,0.27,1.47,0.140.98,
0.11,0.94,0.27,1.54,0.281.05,
0.11,0.94,0.27,1.61,0.420.77,
0.11,0.94,0.27,1.47,0.630.77,
0.11,0.94,0.27,1.4,0.700.70,
0.11,0.94,0.27,1.47,0.771.19,
0.11,0.94,0.26,1.4,0.700.91,
0.11,0.94,0.26,1.54,0.491.05,
0.11,0.94,0.27,1.61,0.421.12,
0.12,0.94,0.27,1.54,0.351.26,
0.11,0.94,0.27,1.4,0.351.47,
0.11,0.94,0.27,1.4,0.281.19,
0.11,0.94,0.27,1.33,0.281.19,
0.11,0.94,0.27,1.33,0.071.19,
0.11,0.94,0.27,1.05,-0.070.91,
0.11,0.94,0.26,1.19,-0.210.63,
0.11,0.94,0.26,1.12,-0.350.84,
0.11,0.94,0.26,1.12,-0.561.05,
0.11,0.94,0.26,1.33,-0.700.91,
0.11,0.94,0.27,1.4,-0.491.40,
0.11,0.94,0.27,1.26,-0.631.19,
0.11,0.94,0.27,1.26,-0.630.84,
0.11,0.94,0.27,0.98,-0.561.05,
0.11,0.94,0.27,0.91,-0.700.98,
0.11,0.94,0.27,0.91,-0.700.42,
0.11,0.94,0.26,0.84,-0.910.56,
0.11,0.94,0.27,0.77,-1.120.91,
0.11,0.94,0.26,0.7,-1.260.70,
0.11,0.93,0.26,0.77,-1.330.63,
0.11,0.93,0.27,0.63,-1.260.84,
0.11,0.93,0.27,0.84,-1.190.84,
0.11,0.94,0.27,1.26,-1.190.70,
0.11,0.94,0.27,1.26,-0.910.84,
0.12,0.94,0.27,1.33,-0.700.49,
0.12,0.94,0.27,1.26,-0.630.56,
0.12,0.94,0.27,1.19,-0.560.84,
0.12,0.94,0.26,1.05,-0.770.56,
0.11,0.94,0.26,0.91,-1.120.91,
0.11,0.94,0.26,0.98,-1.331.05,
0.11,0.94,0.27,0.91,-1.260.91,
0.11,0.94,0.27,0.84,-1.121.05,
0.11,0.94,0.27,0.77,-1.121.05,
0.11,0.94,0.27,0.77,-1.120.70,
0.11,0.94,0.27,0.77,-0.980.42,
0.12,0.93,0.27,0.77,-0.700.56,
0.11,0.93,0.26,0.84,-0.910.77,
0.12,0.94,0.26,0.84,-0.770.77,
0.12,0.94,0.26,0.91,-0.770.77,
0.11,0.93,0.26,1.05,-0.980.84,
0.11,0.94,0.26,1.05,-0.980.84,
0.11,0.94,0.26,1.12,-1.050.98,
0.11,0.94,0.27,1.12,-0.980.70,
0.11,0.94,0.26,1.19,-0.840.91,
0.11,0.94,0.27,1.19,-0.770.84,
0.11,0.94,0.27,1.26,-0.700.49,
0.11,0.94,0.27,1.12,-0.560.70,
0.11,0.94,0.27,1.19,-0.490.70,
0.12,0.94,0.27,0.98,-0.420.49,
0.11,0.94,0.27,1.12,-0.280.70,
0.12,0.93,0.27,1.12,-0.281.26,
0.11,0.94,0.26,1.12,-0.141.12,
0.11,0.94,0.27,1.12,-0.140.98,
0.11,0.94,0.27,1.19,0.071.12,
0.11,0.94,0.27,1.26,0.000.49,
0.11,0.94,0.27,1.26,0.280.91,
0.11,0.93,0.27,1.26,0.140.77,
0.12,0.93,0.27,1.12,0.000.91,
0.11,0.93,0.26,1.19,-0.140.77,
0.12,0.93,0.26,1.33,-0.280.91,
0.11,0.94,0.27,1.47,-0.281.19,
0.12,0.94,0.27,1.47,-0.071.19,
0.11,0.94,0.26,1.61,0.281.26,
0.11,0.94,0.26,1.47,0.421.05,
0.11,0.94,0.26,1.33,0.211.40,
0.11,0.94,0.26,1.26,0.140.91,
0.11,0.94,0.26,1.05,0.071.19,
0.11,0.93,0.26,1.05,-0.070.98,
0.11,0.94,0.26,1.05,-0.141.05,
0.11,0.94,0.27,0.98,-0.211.12,
0.11,0.94,0.27,0.91,0.001.12,
0.11,0.94,0.27,0.98,-0.141.19,
0.11,0.94,0.27,1.12,-0.070.91,
0.11,0.94,0.27,1.19,0.070.70,
0.11,0.94,0.27,1.4,0.000.98,
0.11,0.94,0.26,1.54,-0.070.77,
0.11,0.94,0.27,1.68,0.070.84,
0.11,0.94,0.27,1.47,0.141.05,
0.11,0.94,0.26,1.4,0.070.98,
0.11,0.94,0.26,1.47,0.280.77,
0.11,0.94,0.26,1.47,0.351.12,
0.11,0.94,0.27,1.4,0.350.98,
0.11,0.94,0.26,1.33,0.141.19,
0.11,0.94,0.27,1.26,0.001.40,
0.11,0.94,0.26,1.33,0.001.33,
0.11,0.94,0.26,1.33,-0.211.33,
0.11,0.94,0.26,1.26,-0.211.26,
0.11,0.94,0.26,1.33,-0.071.19,
0.11,0.94,0.26,1.33,0.000.91,
0.11,0.94,0.26,1.33,0.000.56,
0.11,0.94,0.27,1.26,-0.210.98,
0.11,0.94,0.26,1.19,-0.070.91,
0.11,0.94,0.26,1.12,0.071.12,
0.11,0.94,0.26,1.19,0.141.12,
0.11,0.94,0.26,1.26,0.211.26,
0.11,0.94,0.26,1.26,0.211.26,
0.11,0.94,0.26,1.26,0.141.26,
0.11,0.94,0.26,1.33,0.001.12,
0.11,0.94,0.26,1.33,-0.070.98,
0.11,0.94,0.26,1.19,-0.070.77,
0.11,0.94,0.26,1.26,-0.280.56,
0.11,0.94,0.26,1.19,-0.421.19,
0.11,0.94,0.26,1.12,-0.280.91,
0.11,0.94,0.26,0.98,-0.491.12,
0.11,0.94,0.26,1.05,-0.421.05,
0.11,0.94,0.26,0.98,-0.350.91,
0.11,0.94,0.26,0.98,-0.281.12,
0.11,0.94,0.26,0.84,-0.351.19,
0.11,0.94,0.26,0.98,-0.280.91,
0.11,0.94,0.26,0.98,-0.350.98,
0.11,0.94,0.26,0.98,-0.421.12,
0.11,0.94,0.26,0.91,-0.421.26,
0.11,0.94,0.26,0.91,-0.421.26,
0.11,0.94,0.26,0.91,-0.491.40,
0.11,0.94,0.26,0.84,-0.421.61,
0.11,0.94,0.26,0.77,-0.421.54,
0.11,0.94,0.26,0.77,-0.491.47,
0.11,0.94,0.26,0.7,-0.421.12,
0.11,0.94,0.26,0.63,-0.421.12,
0.11,0.94,0.26,0.84,-0.630.98,
0.11,0.94,0.26,0.7,-0.911.12,
0.11,0.94,0.26,0.56,-0.911.05,
0.11,0.94,0.26,0.63,-1.050.91,
0.11,0.94,0.26,0.63,-0.840.91,
0.11,0.94,0.26,0.77,-0.701.05,
0.11,0.94,0.26,0.77,-0.420.84,
0.11,0.94,0.26,0.7,-0.210.77,
0.11,0.94,0.26,0.77,-0.140.91,
0.11,0.94,0.26,0.77,-0.140.77,
0.11,0.93,0.27,0.98,-0.490.98,
0.11,0.94,0.27,0.98,-0.560.91,
0.11,0.94,0.26,0.98,-0.700.70,
0.12,0.94,0.26,0.98,-0.911.19,
0.11,0.94,0.26,0.84,-0.771.05,
0.11,0.94,0.26,0.77,-0.840.98,
0.11,0.94,0.26,0.84,-0.421.12,
0.11,0.94,0.26,0.84,-0.140.91,
0.11,0.94,0.26,0.77,17.780.98,
0.11,0.94,0.26,0.7,-0.071.26,
0.11,0.94,0.26,0.84,-0.210.98,
0.11,0.94,0.26,0.7,-0.351.05,
0.11,0.94,0.26,0.84,-0.351.26,
0.11,0.94,0.26,0.91,-0.421.19,
0.11,0.94,0.26,0.91,-0.421.19,
0.11,0.94,0.26,0.91,-0.351.12,
0.11,0.94,0.26,0.84,-0.351.05,
0.11,0.94,0.27,0.63,-0.211.40,
0.11,0.94,0.26,0.7,-0.141.12,
0.11,0.94,0.26,0.63,-0.071.26,
0.11,0.94,0.26,0.63,0.001.19,
0.11,0.94,0.27,0.7,-0.140.98,
0.11,0.94,0.26,0.56,-0.211.40,
0.11,0.94,0.27,0.7,-0.281.12,
0.11,0.94,0.27,0.7,-0.421.26,
0.11,0.94,0.26,0.7,-0.420.91,
0.11,0.94,0.26,0.63,-0.490.98,
0.11,0.94,0.26,0.63,-0.631.33,
0.11,0.94,0.26,0.63,-0.771.12,
0.11,0.94,0.26,0.63,-0.770.63,
0.11,0.94,0.26,0.56,-0.840.98,
0.11,0.94,0.26,0.49,-0.771.05,
0.11,0.94,0.26,0.7,-0.771.05,
0.11,0.94,0.26,0.7,-0.491.19,
0.11,0.94,0.27,0.77,-0.420.91,
0.11,0.94,0.26,0.63,-0.490.91,
0.11,0.94,0.26,0.7,-0.630.91,
0.11,0.94,0.27,0.77,-0.770.84,
0.11,0.94,0.26,0.77,-0.840.98,
0.12,0.94,0.26,0.77,-0.910.91,
0.12,0.94,0.26,0.77,-0.910.84,
0.12,0.94,0.26,0.77,-0.630.91,
0.12,0.94,0.26,0.77,-0.490.91,
0.11,0.94,0.26,0.84,-0.350.98,
0.12,0.94,0.27,1.05,-0.140.91,
0.11,0.94,0.27,1.12,0.001.05,
0.12,0.94,0.27,1.12,-0.070.98,
0.11,0.93,0.27,1.12,0.140.70,
0.11,0.93,0.27,1.12,0.070.98,
0.11,0.93,0.27,1.12,0.001.19,
0.12,0.93,0.27,1.19,0.071.05,
0.12,0.94,0.27,1.19,0.211.05,
0.11,0.94,0.27,1.12,0.351.12,
0.11,0.94,0.27,1.05,0.350.98,
0.11,0.94,0.26,0.84,0.071.54,
0.11,0.94,0.26,0.77,0.071.12,
0.11,0.94,0.26,0.77,-0.140.63,
0.11,0.93,0.26,0.84,-0.280.70,
0.11,0.93,0.27,1.05,-0.350.84,
0.11,0.93,0.27,1.33,-0.210.77,
0.11,0.94,0.27,1.4,-0.211.19,
0.11,0.94,0.26,1.54,0.071.26,
0.11,0.94,0.26,1.47,0.280.98,
0.11,0.94,0.26,1.47,0.351.19,
0.11,0.94,0.26,1.47,0.420.98,
0.11,0.94,0.26,1.47,0.280.98,
0.11,0.94,0.26,1.47,0.071.05,
0.11,0.94,0.26,1.33,-0.350.98,
0.11,0.94,0.26,1.33,-0.420.98,
0.11,0.94,0.26,1.26,-0.351.12,
0.11,0.94,0.27,1.26,-0.141.05,
0.11,0.94,0.27,1.33,0.001.05,
0.11,0.94,0.26,1.19,0.421.12,
0.11,0.94,0.26,1.12,0.560.98,
0.12,0.94,0.26,0.91,0.841.40,
0.12,0.94,0.26,0.98,0.841.61,
0.12,0.94,0.26,1.05,0.771.61,
0.11,0.94,0.26,1.12,0.701.54,
0.11,0.94,0.26,1.12,0.631.96,
0.11,0.94,0.26,1.26,0.421.82,
0.1,0.94,0.26,1.19,0.211.61,
0.1,0.94,0.26,1.33,0.002.10,
0.1,0.94,0.26,1.19,0.281.47,
0.11,0.94,0.26,1.19,0.351.40,
0.1,0.94,0.26,1.05,0.211.33,
0.11,0.94,0.26,0.98,0.281.33,
0.11,0.94,0.26,0.98,0.070.91,
0.11,0.94,0.26,0.77,0.000.98,
0.11,0.94,0.26,0.77,-0.351.19,
0.11,0.94,0.26,0.7,-0.561.05,
0.11,0.94,0.26,0.7,-0.561.12,
0.11,0.94,0.26,0.63,-0.701.12,
0.11,0.94,0.26,0.84,-0.840.91,
0.11,0.94,0.26,0.77,-0.771.26,
0.11,0.94,0.26,0.77,-0.701.05,
0.11,0.94,0.26,0.77,-0.981.05,
0.11,0.94,0.26,0.63,-1.120.98,
0.11,0.94,0.26,0.63,-1.260.84,
0.11,0.94,0.26,0.63,-1.470.98,
0.11,0.94,0.26,0.56,-1.680.70,
0.11,0.94,0.26,0.77,-1.751.26,
0.11,0.94,0.26,0.63,-1.751.26,
0.11,0.94,0.26,0.63,-1.611.26,
0.11,0.94,0.26,0.63,-1.611.26,
0.11,0.95,0.26,0.56,-1.471.19,
0.11,0.94,0.26,0.49,-1.191.19,
0.11,0.94,0.26,0.35,-1.261.05,
0.11,0.94,0.26,0.28,-1.050.91,
0.11,0.94,0.26,0.28,-1.260.84,
0.11,0.94,0.26,0.21,-1.261.05,
0.11,0.94,0.26,0.21,-1.330.98,
0.12,0.94,0.26,0.14,-1.331.26,
0.11,0.94,0.26,0.35,-1.191.19,
0.12,0.94,0.27,0.56,-0.981.05,
0.12,0.94,0.27,0.7,-0.771.12,
0.11,0.94,0.26,0.84,-0.701.19,
0.11,0.94,0.26,0.84,-0.491.05,
0.12,0.94,0.26,0.7,-0.491.33,
0.11,0.94,0.26,0.63,-0.421.40,
0.12,0.94,0.26,0.63,-0.560.98,
0.11,0.94,0.26,0.63,-0.561.54,
0.11,0.94,0.26,0.42,-0.421.82,
0.11,0.94,0.27,0.42,-0.281.47,
0.11,0.94,0.27,0.42,-0.281.54,
0.11,0.94,0.26,0.28,-0.281.82,
0.11,0.94,0.26,0.35,-0.351.40,
0.11,0.94,0.26,0.56,-0.491.40,
0.12,0.94,0.26,0.56,-0.491.47,
0.11,0.94,0.26,0.56,-0.351.47,
0.11,0.94,0.26,0.77,-0.351.26,
0.11,0.94,0.26,0.7,-0.141.19,
0.11,0.94,0.27,0.7,-0.070.84,
0.11,0.94,0.26,0.77,0.071.33,
0.11,0.94,0.26,0.7,-0.071.40,
0.11,0.94,0.27,0.7,0.001.19,
0.11,0.94,0.26,0.63,-0.141.33,
0.11,0.94,0.26,0.56,-0.351.33,
0.11,0.94,0.26,0.56,-0.631.19,
0.11,0.94,0.26,0.49,-0.771.68,
0.11,0.94,0.26,0.49,-0.631.47,
0.11,0.94,0.27,0.35,-0.701.19,
0.13,0.93,0.27,1.19,0.071.26,
0.12,0.93,0.27,1.19,0.001.33,
0.12,0.93,0.28,1.12,0.071.40,
0.12,0.94,0.28,1.33,0.211.19,
0.12,0.94,0.28,1.26,0.351.33,
0.12,0.94,0.28,1.26,0.420.91,
0.12,0.94,0.28,1.4,0.280.77,
0.12,0.93,0.28,1.19,-0.070.98,
0.12,0.93,0.28,1.05,-0.490.98,
0.12,0.93,0.27,0.91,-0.490.91,
0.13,0.93,0.27,0.91,-0.700.98,
0.13,0.93,0.27,0.91,-0.700.77,
0.13,0.93,0.28,0.91,-0.491.05,
0.13,0.94,0.28,0.91,-0.141.05,
0.13,0.94,0.28,0.77,0.140.70,
0.13,0.94,0.28,0.84,0.210.77,
0.13,0.94,0.28,0.77,-0.070.98,
0.13,0.94,0.28,0.84,-0.141.05,
0.13,0.93,0.28,0.77,-0.421.40,
0.12,0.92,0.28,0.77,-0.771.19,
0.12,0.92,0.27,0.98,-0.981.54,
0.12,0.93,0.28,1.26,-1.051.26,
0.12,0.93,0.28,1.33,-0.981.33,
0.13,0.94,0.28,1.33,-0.631.26,
0.13,0.94,0.28,1.19,-0.211.05,
0.13,0.94,0.28,1.05,0.070.91,
0.13,0.94,0.28,0.77,0.140.77,
0.13,0.94,0.28,0.56,-0.070.91,
0.13,0.94,0.27,0.42,-0.211.19,
0.13,0.93,0.27,0.63,-0.491.19,
0.13,0.93,0.27,0.56,-0.561.33,
0.12,0.93,0.27,0.77,-0.771.54,
0.12,0.93,0.27,0.91,-0.841.40,
0.12,0.93,0.27,0.91,-0.771.54,
0.12,0.94,0.27,0.91,-0.911.54,
0.12,0.94,0.28,0.91,-0.771.05,
0.12,0.94,0.28,0.77,-0.630.91,
0.12,0.94,0.28,0.63,-0.490.84,
0.12,0.94,0.28,0.42,-0.350.49,
0.13,0.93,0.27,0.35,-0.070.49,
0.13,0.93,0.27,0.21,-0.280.84,
0.12,0.93,0.27,0.49,-0.490.77,
0.12,0.93,0.27,0.42,-0.630.91,
0.12,0.93,0.27,0.42,-1.051.12,
0.12,0.93,0.27,0.7,-1.190.91,
0.12,0.94,0.27,0.91,-1.330.98,
0.13,0.94,0.27,0.98,-1.050.91,
0.12,0.93,0.28,0.77,-0.770.77,
0.13,0.93,0.28,0.84,-0.700.77,
0.13,0.93,0.28,0.91,-0.560.70,
0.13,0.93,0.28,0.7,-0.630.84,
0.13,0.93,0.28,0.84,-0.700.63,
0.13,0.93,0.27,0.91,-0.980.70,
0.13,0.93,0.27,0.91,-0.980.98,
0.13,0.93,0.28,0.98,-0.980.84,
0.13,0.94,0.28,0.91,-0.630.84,
0.13,0.94,0.28,0.91,-0.490.91,
0.13,0.94,0.28,0.77,-0.490.49,
0.13,0.94,0.28,0.56,-0.420.77,
0.13,0.93,0.28,0.63,-0.560.84,
0.13,0.93,0.28,0.56,-0.841.12,
0.12,0.93,0.28,0.63,-0.631.40,
0.13,0.93,0.27,0.63,-0.631.40,
0.13,0.93,0.28,0.84,-0.561.33,
0.13,0.93,0.28,0.77,-0.351.54,
0.12,0.93,0.28,0.91,-0.351.19,
0.12,0.93,0.28,0.91,-0.210.84,
0.13,0.94,0.28,0.84,-0.210.70,
0.13,0.94,0.28,0.7,-0.140.84,
0.13,0.93,0.28,0.7,-0.140.49,
0.13,0.93,0.27,0.7,-0.280.77,
0.13,0.93,0.28,0.7,-0.281.05,
0.13,0.93,0.27,0.84,-0.210.84,
0.12,0.93,0.27,0.91,-0.210.98,
0.12,0.93,0.27,1.26,-0.350.91,
0.12,0.93,0.28,1.12,-0.281.12,
0.12,0.93,0.28,1.19,-0.210.91,
0.13,0.93,0.28,1.19,-0.070.84,
0.12,0.93,0.28,1.12,-0.070.77,
0.13,0.93,0.28,1.12,-0.070.84,
0.13,0.93,0.28,0.84,-0.070.56,
0.13,0.93,0.28,0.77,-0.421.12,
0.12,0.93,0.27,0.77,-0.631.05,
0.13,0.93,0.28,0.91,-0.700.56,
0.13,0.94,0.28,0.98,-0.700.56,
0.13,0.93,0.28,1.12,-0.420.63,
0.13,0.93,0.28,1.19,-0.210.49,
0.13,0.93,0.28,1.26,0.070.63,
0.13,0.93,0.28,1.33,0.211.05,
0.13,0.93,0.28,1.4,0.280.84,
0.13,0.93,0.28,1.4,0.071.19,
0.13,0.93,0.28,1.33,-0.071.33,
0.13,0.93,0.28,1.4,-0.280.98,
0.13,0.93,0.28,1.26,-0.351.19,
0.13,0.94,0.28,1.19,-0.211.19,
0.12,0.94,0.28,1.05,-0.210.98,
0.12,0.94,0.28,1.05,0.071.33,
0.12,0.94,0.28,1.12,0.001.26,
0.13,0.93,0.28,1.05,0.211.05,
0.13,0.93,0.27,0.98,0.140.91,
0.13,0.93,0.28,1.19,0.140.98,
0.13,0.93,0.27,1.26,0.071.12,
0.12,0.93,0.27,1.47,-0.071.12,
0.12,0.93,0.27,1.47,0.000.91,
0.13,0.93,0.27,1.68,-0.140.70,
0.12,0.94,0.27,1.68,-0.070.77,
0.12,0.94,0.27,1.75,0.070.63,
0.12,0.94,0.28,1.47,0.000.28,
0.12,0.93,0.28,1.4,17.780.42,
0.12,0.93,0.28,1.47,-0.350.56,
0.13,0.93,0.28,1.33,-0.420.63,
0.13,0.94,0.28,1.19,-0.420.84,
0.13,0.93,0.28,1.19,-0.420.84,
0.13,0.93,0.28,1.26,-0.491.12,
0.13,0.93,0.27,1.19,-0.631.26,
0.13,0.94,0.27,1.12,-0.490.98,
0.12,0.94,0.27,1.12,-0.561.05,
0.12,0.94,0.27,1.12,-0.491.12,
0.12,0.94,0.27,1.12,-0.490.91,
0.12,0.94,0.27,0.91,-0.491.05,
0.12,0.94,0.28,0.84,-0.491.12,
0.12,0.93,0.28,0.91,-0.630.84,
0.12,0.93,0.28,0.84,-0.981.05,
0.12,0.93,0.27,0.91,-0.840.98,
0.12,0.93,0.27,1.12,-0.700.77,
0.12,0.93,0.27,1.12,-0.840.70,
0.12,0.93,0.27,1.19,-0.840.70,
0.12,0.93,0.27,1.19,-0.840.49,
0.12,0.93,0.27,1.19,-0.840.49,
0.12,0.93,0.27,1.4,-0.840.35,
0.12,0.93,0.27,1.4,-0.630.14,
0.12,0.94,0.27,1.4,-0.630.35,
0.13,0.94,0.28,1.54,-0.560.21,
0.12,0.94,0.28,1.4,-0.490.42,
0.12,0.94,0.28,1.19,-0.630.77,
0.12,0.94,0.28,1.12,-0.840.49,
0.12,0.93,0.28,1.05,-1.050.91,
0.12,0.93,0.28,0.91,-1.190.77,
0.12,0.93,0.27,1.05,-1.330.63,
0.13,0.93,0.27,0.98,-1.120.84,
0.13,0.93,0.27,0.98,-0.980.77,
0.13,0.93,0.27,1.05,-0.770.70,
0.13,0.93,0.27,0.98,-0.560.49,
0.13,0.94,0.28,1.05,-0.560.56,
0.13,0.93,0.28,0.98,-0.560.56,
0.12,0.93,0.27,0.98,-0.560.77,
0.12,0.93,0.27,1.12,-0.770.98,
0.12,0.93,0.27,1.19,-0.980.63,
0.12,0.93,0.27,1.47,-1.050.42,
0.12,0.93,0.27,1.4,-1.050.70,
0.12,0.93,0.27,1.33,-0.840.70,
0.12,0.93,0.27,1.47,-1.050.56,
0.12,0.93,0.27,1.33,-1.050.77,
0.12,0.94,0.27,1.26,-0.980.70,
0.12,0.94,0.27,1.19,-0.840.77,
0.12,0.94,0.27,0.98,-0.700.77,
0.12,0.94,0.27,1.05,-0.560.77,
0.12,0.93,0.27,1.05,-0.840.63,
0.12,0.93,0.27,1.12,-0.980.77,
0.12,0.94,0.28,1.26,-1.260.56,
0.13,0.94,0.27,1.26,-1.260.77,
0.12,0.93,0.27,1.26,-1.260.49,
0.12,0.93,0.27,1.12,-1.120.63,
0.12,0.93,0.27,1.12,-0.840.56,
0.12,0.93,0.27,1.12,-0.280.77,
0.12,0.94,0.27,1.19,-0.070.84,
0.12,0.94,0.27,1.19,0.351.12,
0.12,0.94,0.27,1.19,0.561.33,
0.12,0.93,0.27,1.26,0.631.19,
0.12,0.93,0.27,1.26,0.491.26,
0.12,0.93,0.27,1.47,0.281.19,
0.12,0.93,0.27,1.61,-0.140.98,
0.12,0.94,0.27,1.68,-0.351.05,
0.12,0.94,0.28,1.68,-0.421.05,
0.12,0.94,0.27,1.54,-0.630.98,
0.12,0.94,0.27,1.33,-0.630.56,
0.12,0.94,0.27,1.12,-0.560.77,
0.12,0.94,0.27,0.91,-0.490.77,
0.12,0.94,0.27,0.84,-0.560.63,
0.12,0.93,0.27,0.98,-0.630.84,
0.12,0.93,0.27,0.98,-0.701.26,
0.12,0.94,0.27,1.05,-0.770.91,
0.13,0.93,0.27,0.98,-0.561.12,
0.12,0.93,0.27,1.12,-0.561.19,
0.12,0.93,0.27,1.26,-0.490.91,
0.12,0.94,0.27,1.19,-0.631.05,
0.12,0.94,0.27,1.19,-0.491.12,
0.12,0.94,0.27,1.19,-0.700.84,
0.12,0.94,0.27,1.19,-0.560.91,
0.12,0.94,0.27,1.12,-0.700.91,
0.12,0.94,0.27,1.12,-0.770.77,
0.12,0.94,0.27,0.98,-0.770.70,
0.12,0.93,0.27,0.91,-0.700.77,
0.12,0.93,0.27,0.91,-0.560.84,
0.12,0.93,0.27,0.98,-0.491.12,
0.12,0.93,0.27,0.98,-0.281.05,
0.12,0.94,0.27,1.19,0.000.98,
0.12,0.94,0.27,1.26,-0.350.77,
0.12,0.94,0.27,1.19,-0.280.91,
0.12,0.94,0.27,1.19,-0.280.84,
0.12,0.94,0.27,0.98,-0.561.19,
0.12,0.94,0.27,0.91,-0.701.05,
0.12,0.94,0.27,0.98,-0.700.98,
0.12,0.94,0.27,0.98,-0.701.26,
0.12,0.94,0.27,0.91,-0.560.98,
0.12,0.93,0.27,0.98,-0.490.70,
0.12,0.93,0.27,0.98,-0.351.19,
0.12,0.94,0.27,0.91,-0.490.98,
0.12,0.93,0.27,0.91,-0.420.98,
0.12,0.93,0.27,0.98,-0.351.19,
0.12,0.94,0.27,1.12,-0.351.05,
0.12,0.93,0.27,1.05,-0.280.63,
0.12,0.94,0.27,1.12,-0.141.05,
0.12,0.94,0.27,1.12,-0.141.26,
0.12,0.94,0.27,1.19,-0.280.98,
0.12,0.94,0.27,0.91,-0.420.98,
0.12,0.94,0.27,0.84,-0.631.05,
0.12,0.94,0.27,0.98,-0.770.84,
0.12,0.93,0.27,0.98,-0.840.84,
0.12,0.93,0.27,0.98,-0.840.91,
0.12,0.93,0.27,0.91,-0.770.91,
0.12,0.93,0.27,1.19,-0.770.84,
0.12,0.94,0.27,1.12,-0.490.91,
0.13,0.94,0.27,1.05,-0.140.98,
0.13,0.94,0.27,0.98,0.141.12,
0.13,0.94,0.27,0.98,0.070.91,
0.12,0.93,0.27,1.05,0.071.12,
0.12,0.93,0.27,1.05,0.071.05,
0.12,0.93,0.27,1.05,-0.140.98,
0.12,0.93,0.27,1.19,-0.351.33,
0.12,0.93,0.27,0.98,-0.421.19,
0.12,0.94,0.27,0.98,-0.281.12,
0.12,0.94,0.27,1.05,-0.281.12,
0.12,0.94,0.27,0.84,-0.141.26,
0.12,0.94,0.27,0.7,-0.141.19,
0.12,0.94,0.27,0.63,-0.071.05,
0.12,0.94,0.27,0.63,-0.211.05,
0.12,0.94,0.27,0.63,-0.351.12,
0.12,0.93,0.27,0.63,-0.350.91,
0.12,0.93,0.27,0.84,-0.561.26,
0.12,0.94,0.27,0.98,-0.421.05,
0.12,0.94,0.27,1.05,-0.490.84,
0.12,0.94,0.27,1.05,-0.491.05,
0.12,0.94,0.27,0.84,-0.351.05,
0.12,0.94,0.27,0.77,-0.490.42,
0.12,0.94,0.27,0.7,-0.840.77,
0.12,0.94,0.27,0.63,-0.980.84,
0.12,0.93,0.27,0.7,-0.980.63,
0.12,0.93,0.27,0.84,-0.840.84,
0.12,0.94,0.27,0.84,-0.701.05,
0.12,0.94,0.27,0.77,-0.700.91,
0.12,0.94,0.27,0.77,-0.420.70,
0.12,0.94,0.27,0.7,-0.210.98,
0.12,0.94,0.27,0.77,0.000.63,
0.12,0.93,0.27,0.7,-0.070.91,
0.12,0.93,0.27,0.84,-0.210.98,
0.12,0.93,0.27,0.84,-0.351.12,
0.12,0.94,0.27,0.84,-0.560.91,
0.12,0.93,0.27,0.77,-0.631.47,
0.12,0.94,0.27,0.7,-0.770.98,
0.12,0.94,0.27,0.77,-0.771.26,
0.12,0.94,0.27,0.84,-0.771.12,
0.12,0.94,0.27,0.63,-0.841.12,
0.12,0.94,0.27,0.77,-0.911.12,
0.12,0.94,0.27,0.63,-0.911.12,
0.12,0.94,0.27,0.49,-1.050.91,
0.12,0.94,0.27,0.49,-0.980.91,
0.12,0.94,0.27,0.56,-1.050.77,
0.12,0.94,0.27,0.56,-0.910.70,
0.12,0.94,0.27,0.49,-1.050.70,
0.13,0.93,0.27,0.56,-1.050.77,
0.13,0.93,0.27,0.77,-0.910.21,
0.13,0.94,0.27,0.98,-0.910.77,
0.12,0.93,0.27,1.19,-0.910.63,
0.12,0.93,0.27,1.26,-0.770.56,
0.12,0.93,0.27,1.26,-0.560.63,
0.12,0.93,0.28,1.33,-0.420.42,
0.12,0.94,0.28,1.26,-0.420.49,
0.13,0.94,0.28,1.19,0.000.77,
0.13,0.94,0.28,1.05,0.141.05,
0.13,0.94,0.27,1.05,0.000.91,
0.12,0.94,0.27,0.77,-0.351.19,
0.12,0.93,0.27,0.77,-0.421.40,
0.12,0.93,0.27,0.7,-0.631.33,
0.12,0.93,0.27,0.77,-0.631.12,
0.12,0.93,0.27,1.12,-0.491.26,
0.12,0.93,0.28,1.19,-0.071.33,
0.12,0.93,0.27,1.26,0.351.19,
0.12,0.93,0.27,1.33,0.351.05,
0.12,0.93,0.27,1.19,0.560.98,
0.12,0.94,0.27,1.05,0.561.40,
0.12,0.94,0.27,0.98,0.281.19,
0.12,0.94,0.27,0.98,-0.070.98,
0.12,0.94,0.27,1.05,-0.420.98,
0.12,0.93,0.27,1.05,-0.700.91,
0.12,0.94,0.27,1.12,-0.840.98,
0.12,0.94,0.27,1.12,-0.630.98,
0.12,0.94,0.27,1.05,-0.350.84,
0.12,0.94,0.27,1.05,-0.210.77,
0.12,0.94,0.27,0.91,-0.070.63,
0.12,0.94,0.27,0.77,-0.350.84,
0.12,0.94,0.27,0.91,-0.420.77,
0.12,0.93,0.27,0.91,-0.630.84,
0.12,0.93,0.27,0.91,-0.771.12,
0.12,0.94,0.27,0.91,-1.120.98,
0.11,0.94,0.27,0.84,-1.120.98,
0.12,0.94,0.27,0.7,-1.331.05,
0.12,0.94,0.27,0.63,-1.470.98,
0.12,0.94,0.27,0.56,-1.400.77,
0.12,0.94,0.27,0.49,-1.330.84,
0.12,0.94,0.27,0.63,-1.330.42,
0.12,0.93,0.27,0.77,-1.120.49,
0.12,0.93,0.27,0.77,-1.050.70,
0.12,0.93,0.27,0.91,-1.050.91,
0.12,0.93,0.27,0.98,-0.910.98,
0.12,0.94,0.27,1.05,-0.981.05,
0.12,0.94,0.27,0.98,-0.910.98,
0.12,0.94,0.27,0.84,-0.771.26,
0.12,0.93,0.27,0.84,-0.631.12,
0.12,0.93,0.27,0.84,-0.560.98,
0.12,0.94,0.27,0.77,-0.561.12,
0.12,0.93,0.27,0.91,-0.630.77,
0.12,0.93,0.27,0.98,-0.560.98,
0.12,0.93,0.27,1.12,-0.280.70,
0.12,0.93,0.27,1.33,-0.420.70,
0.12,0.93,0.27,1.19,-0.420.42,
0.12,0.93,0.27,1.54,-0.280.49,
0.12,0.93,0.27,1.4,-0.140.70,
0.12,0.94,0.27,1.54,0.000.70,
0.12,0.94,0.27,1.4,0.001.12,
0.12,0.94,0.27,1.05,-0.281.26,
0.12,0.94,0.27,0.84,-0.140.70,
0.12,0.94,0.27,0.77,-0.490.98,
0.12,0.93,0.27,0.91,-0.560.91,
0.12,0.93,0.27,0.98,-0.700.77,
0.12,0.94,0.27,0.98,-0.770.84,
0.12,0.94,0.27,0.91,-0.981.12,
0.12,0.94,0.27,1.12,-1.190.56,
0.12,0.94,0.27,1.12,-1.260.84,
0.12,0.93,0.27,1.12,-1.120.84,
0.12,0.94,0.27,1.26,-0.910.63,
0.12,0.94,0.27,1.33,-0.700.70,
0.12,0.94,0.27,1.12,-0.490.56,
0.12,0.94,0.27,1.05,-0.630.84,
0.13,0.94,0.27,0.77,-0.560.84,
0.12,0.93,0.27,0.63,-0.630.70,
0.12,0.93,0.27,0.7,-0.771.12,
0.12,0.93,0.27,0.77,-0.980.98,
0.12,0.93,0.27,0.91,-1.050.98,
0.12,0.93,0.27,1.05,-0.770.98,
0.12,0.93,0.27,1.26,-0.770.91,
0.13,0.93,0.27,1.61,-0.351.05,
0.13,0.94,0.27,1.68,0.000.84,
0.13,0.94,0.27,1.47,0.350.70,
0.13,0.94,0.27,1.47,0.280.91,
0.12,0.94,0.27,1.47,0.211.05,
0.12,0.94,0.27,1.33,0.071.05,
0.12,0.94,0.27,1.26,0.001.12,
0.12,0.94,0.27,1.05,-0.071.33,
0.12,0.94,0.27,0.98,-0.071.12,
0.12,0.94,0.27,0.84,-0.141.33,
0.12,0.94,0.27,0.77,-0.211.40,
0.12,0.94,0.27,0.98,-0.351.19,
0.12,0.93,0.27,0.98,-0.280.98,
0.11,0.93,0.27,1.05,-0.280.84,
0.11,0.94,0.27,1.26,-0.420.63,
0.11,0.94,0.27,1.19,-0.210.56,
0.11,0.94,0.27,1.33,-0.210.84,
0.11,0.93,0.27,1.4,-0.210.49,
0.12,0.94,0.27,1.47,-0.420.63,
0.12,0.94,0.26,1.61,-0.700.35,
0.12,0.94,0.27,1.54,-0.700.63,
0.11,0.93,0.27,1.68,-0.560.49,
0.12,0.94,0.27,1.96,-0.630.49,
0.12,0.94,0.27,1.82,-0.560.21,
0.12,0.94,0.27,1.61,-0.700.84,
0.12,0.94,0.27,1.47,-0.560.14,
0.12,0.94,0.27,1.4,-0.700.42,
0.12,0.94,0.27,1.05,-0.700.98,
0.12,0.93,0.27,1.12,-0.910.91,
0.12,0.93,0.27,1.12,-0.770.49,
0.12,0.93,0.27,1.4,-0.770.98,
0.12,0.93,0.26,1.33,-0.561.12,
0.12,0.93,0.26,1.47,-0.420.98,
0.12,0.94,0.26,1.54,-0.281.05,
0.12,0.94,0.26,1.47,-0.141.19,
0.12,0.94,0.27,1.54,-0.070.77,
0.11,0.94,0.27,1.47,-0.351.12,
0.12,0.94,0.27,1.4,-0.421.12,
0.12,0.94,0.27,1.4,-0.561.05,
0.12,0.94,0.27,1.33,-0.771.05,
0.12,0.94,0.27,1.26,-0.700.91,
0.12,0.94,0.27,1.26,-0.630.70,
0.12,0.93,0.26,1.33,-0.210.91,
0.12,0.94,0.27,1.4,-0.210.98,
0.12,0.94,0.26,1.4,0.140.98,
0.12,0.94,0.26,1.54,0.070.84,
0.12,0.94,0.26,1.75,-0.070.84,
0.12,0.94,0.26,1.54,0.140.84,
0.12,0.94,0.26,1.54,0.141.19,
0.12,0.94,0.26,1.54,-0.071.12,
0.12,0.94,0.27,1.4,-0.280.98,
0.12,0.94,0.27,1.19,-0.770.98,
0.12,0.94,0.27,1.05,-0.911.05,
0.12,0.94,0.27,1.05,-0.980.70,
0.12,0.94,0.27,1.12,-0.981.05,
0.12,0.94,0.27,1.12,-0.700.56,
0.12,0.94,0.27,1.12,-0.630.56,
0.12,0.94,0.26,1.12,-0.140.84,
0.12,0.94,0.26,1.19,-0.070.70,
0.12,0.94,0.26,1.4,0.000.70,
0.12,0.93,0.26,1.4,0.001.05,
0.12,0.94,0.27,1.54,-0.140.98,
0.11,0.94,0.27,1.54,-0.070.77,
0.12,0.94,0.27,1.68,-0.210.98,
0.12,0.94,0.27,1.54,-0.421.12,
0.12,0.94,0.27,1.54,-0.561.05,
0.12,0.94,0.27,1.33,-0.490.91,
0.12,0.94,0.26,1.19,-0.490.91,
0.12,0.94,0.26,1.26,-0.280.98,
0.12,0.94,0.26,1.26,0.000.49,
0.12,0.94,0.26,1.33,0.210.84,
0.12,0.94,0.26,1.47,0.140.63,
0.11,0.94,0.26,1.33,0.490.49,
0.11,0.94,0.26,1.19,0.281.19,
0.11,0.94,0.26,1.19,0.140.70,
0.11,0.94,0.26,1.05,0.140.63,
0.12,0.94,0.26,1.05,-0.071.05,
0.12,0.94,0.26,0.98,-0.350.84,
0.12,0.94,0.26,1.05,-0.560.84,
0.12,0.94,0.26,1.05,-0.630.91,
0.12,0.94,0.26,1.05,-0.700.70,
0.12,0.94,0.26,1.19,-0.630.77,
0.12,0.94,0.26,1.26,-0.630.98,
0.11,0.94,0.26,1.19,-0.490.70,
0.11,0.94,0.26,1.05,-0.490.84,
0.11,0.94,0.26,1.05,-0.490.91,
0.11,0.94,0.27,1.12,-0.350.77,
0.12,0.94,0.27,1.19,-0.210.70,
0.12,0.94,0.27,1.19,-0.210.63,
0.12,0.94,0.27,1.4,0.000.77,
0.12,0.94,0.27,1.33,0.000.91,
0.12,0.94,0.26,1.05,-0.350.91,
0.12,0.94,0.26,1.05,-0.701.05,
0.12,0.94,0.27,1.12,-0.770.98,
0.12,0.94,0.27,1.12,-0.841.26,
0.11,0.94,0.27,1.33,-0.770.49,
0.12,0.94,0.27,1.4,-0.560.77,
0.12,0.93,0.27,1.26,-0.280.63,
0.12,0.93,0.27,1.26,-0.140.56,
0.12,0.93,0.27,1.26,-0.070.49,
0.12,0.93,0.27,1.4,0.140.77,
0.12,0.94,0.27,1.33,0.420.49,
0.12,0.94,0.27,1.54,0.210.98,
0.12,0.95,0.26,1.75,0.420.91,
0.12,0.94,0.26,1.68,0.281.19,
0.11,0.94,0.26,1.61,-0.211.47,
0.11,0.94,0.26,1.33,-0.351.33,
0.11,0.94,0.26,1.12,-0.701.61,
0.11,0.94,0.26,1.19,-0.841.33,
0.11,0.93,0.26,1.26,-1.051.19,
0.11,0.94,0.27,1.26,-0.910.98,
0.12,0.94,0.27,1.4,-0.700.70,
0.12,0.94,0.27,1.47,-0.490.28,
0.12,0.94,0.26,1.47,-0.350.28,
0.12,0.94,0.26,1.33,-0.280.35,
0.12,0.95,0.26,1.4,-0.560.42,
0.12,0.95,0.26,1.19,-0.700.28,
0.11,0.94,0.26,1.26,-1.190.49,
0.11,0.94,0.26,1.19,-1.540.63,
0.11,0.94,0.26,1.12,-1.890.63,
0.11,0.94,0.26,1.05,-2.030.84,
0.11,0.93,0.26,0.91,-2.100.63,
0.11,0.93,0.26,1.05,-2.380.91,
0.11,0.93,0.26,0.98,-2.450.84,
0.11,0.94,0.26,1.12,-2.520.77,
0.12,0.94,0.26,1.26,-2.380.84,
0.12,0.95,0.26,1.54,-2.240.35,
0.12,0.95,0.26,1.4,-2.170.35,
0.12,0.95,0.26,1.33,-2.170.14,
0.12,0.94,0.26,1.19,-1.750.00,
0.12,0.93,0.26,1.05,-1.610.14,
0.12,0.93,0.26,0.98,-1.680.42,
0.11,0.93,0.26,1.05,-1.540.21,
0.11,0.94,0.27,1.26,-1.400.49,
0.12,0.94,0.27,1.33,-1.050.56,
0.12,0.94,0.27,1.54,-0.910.42,
0.12,0.94,0.26,1.4,-0.700.70,
0.12,0.94,0.26,1.19,-0.630.49,
0.12,0.94,0.26,1.19,-0.770.70,
0.12,0.94,0.26,1.26,-0.840.63,
0.11,0.94,0.26,1.26,-0.980.84,
0.11,0.94,0.26,1.33,-0.980.84,
0.11,0.94,0.26,1.26,-0.700.98,
0.11,0.95,0.26,1.33,-0.420.84,
0.11,0.94,0.26,1.12,-0.350.77,
0.11,0.94,0.26,1.05,-0.281.05,
0.11,0.94,0.26,0.91,-0.420.70,
0.11,0.94,0.26,1.05,-0.770.84,
0.12,0.94,0.25,1.19,-0.910.77,
0.12,0.94,0.26,1.26,-0.770.84,
0.12,0.94,0.26,1.26,-0.630.77,
0.12,0.94,0.26,1.4,-0.490.70,
0.12,0.94,0.26,1.47,-0.490.49,
0.12,0.94,0.26,1.47,-0.280.49,
0.12,0.94,0.26,1.54,0.140.42,
0.12,0.94,0.26,1.54,0.280.21,
0.12,0.94,0.26,1.47,0.840.28,
0.12,0.94,0.26,1.33,0.770.77,
0.12,0.94,0.26,1.47,0.770.63,
0.12,0.94,0.26,1.47,0.770.63,
0.12,0.94,0.26,1.54,0.700.91,
0.12,0.94,0.26,1.54,0.210.70,
0.11,0.94,0.25,1.54,0.140.98,
0.11,0.94,0.25,1.47,-0.070.98,
0.13,0.94,0.26,0.42,0.702.10,
0.12,0.95,0.26,1.54,-0.140.91,
0.11,0.94,0.26,1.4,0.070.84,
0.11,0.94,0.26,1.26,0.210.70,
0.11,0.94,0.26,1.4,0.280.77,
0.11,0.95,0.26,1.26,0.140.84,
0.11,0.95,0.26,1.12,0.000.77,
0.11,0.95,0.26,1.05,-0.350.84,
0.11,0.94,0.25,1.19,-0.700.49,
0.11,0.94,0.25,1.12,-0.770.56,
0.11,0.94,0.26,1.12,-0.770.63,
0.11,0.94,0.26,1.05,-0.840.70,
0.11,0.94,0.26,0.84,-0.840.84,
0.11,0.94,0.26,0.84,-0.840.77,
0.11,0.94,0.26,0.77,-1.050.84,
0.11,0.94,0.26,0.56,-1.191.05,
0.11,0.95,0.26,0.49,-1.260.49,
0.11,0.94,0.26,0.42,-1.471.12,
0.12,0.94,0.26,0.49,-1.470.91,
0.11,0.94,0.26,0.63,-1.400.77,
0.11,0.93,0.26,0.7,-1.261.05,
0.11,0.93,0.26,1.05,-1.050.70,
0.11,0.94,0.26,1.26,-0.630.56,
0.12,0.94,0.26,1.33,-0.210.84,
0.12,0.94,0.26,1.33,-0.140.77,
0.12,0.94,0.26,1.4,-0.070.70,
0.12,0.94,0.26,1.33,-0.070.84,
0.11,0.94,0.26,1.12,-0.071.33,
0.11,0.94,0.26,1.12,-0.351.19,
0.11,0.95,0.26,1.05,-0.631.75,
0.11,0.94,0.26,0.84,-0.771.40,
0.11,0.94,0.26,0.7,-0.631.12,
0.11,0.94,0.26,0.77,-0.561.26,
0.11,0.94,0.26,0.77,-0.070.98,
0.11,0.94,0.26,0.91,0.280.91,
0.11,0.94,0.26,1.12,0.841.12,
0.11,0.94,0.26,1.26,0.841.33,
0.12,0.94,0.26,1.4,1.051.12,
0.12,0.94,0.26,1.47,1.121.12,
0.12,0.94,0.26,1.4,0.911.05,
0.12,0.94,0.26,1.4,0.770.98,
0.12,0.94,0.26,1.33,0.561.05,
0.11,0.94,0.26,1.26,0.421.12,
0.12,0.94,0.26,1.33,0.421.26,
0.11,0.94,0.26,1.26,0.421.40,
0.12,0.94,0.26,1.12,0.631.40,
0.11,0.94,0.26,1.26,0.841.19,
0.11,0.94,0.26,1.19,0.911.40,
0.11,0.94,0.26,1.26,1.191.26,
0.11,0.94,0.26,1.26,0.981.26,
0.11,0.94,0.26,1.26,0.771.33,
0.11,0.94,0.26,1.33,0.771.40,
0.11,0.94,0.26,1.26,0.631.19,
0.11,0.94,0.26,1.26,0.421.61,
0.11,0.94,0.26,1.05,0.211.33,
0.11,0.94,0.26,0.98,0.140.84,
0.11,0.94,0.26,0.7,0.071.33,
0.11,0.94,0.25,0.63,-0.280.91,
0.11,0.94,0.26,0.56,-0.420.98,
0.11,0.94,0.26,0.77,-0.561.05,
0.11,0.95,0.26,0.98,-0.630.98,
0.11,0.95,0.26,0.98,-0.561.12,
0.11,0.94,0.26,0.91,-0.561.19,
0.11,0.94,0.26,1.05,-0.701.26,
0.11,0.94,0.26,0.98,-0.840.84,
0.11,0.94,0.25,0.84,-0.700.98,
0.11,0.94,0.26,0.77,-0.631.05,
0.11,0.94,0.26,0.84,-0.631.12,
0.11,0.94,0.26,0.63,-0.420.91,
0.12,0.94,0.26,0.56,-0.351.26,
0.12,0.94,0.26,0.42,-0.350.91,
0.12,0.94,0.26,0.63,-0.561.05,
0.12,0.94,0.26,0.63,-0.630.98,
0.11,0.94,0.26,0.7,-0.700.98,
0.11,0.94,0.26,1.12,-0.631.19,
0.11,0.94,0.26,1.33,-0.490.91,
0.11,0.94,0.26,1.19,-0.561.05,
0.11,0.94,0.26,0.98,-0.490.77,
0.11,0.94,0.26,0.98,-0.420.77,
0.11,0.94,0.26,0.84,-0.420.98,
0.11,0.95,0.26,0.63,-0.491.12,
0.11,0.95,0.26,0.49,-0.771.05,
0.11,0.94,0.26,0.28,-1.051.26,
0.11,0.94,0.26,0.49,-1.331.33,
0.11,0.94,0.26,0.56,-1.330.98,
0.11,0.94,0.26,0.56,-1.120.77,
0.11,0.94,0.26,0.56,-1.191.19,
0.11,0.94,0.26,0.56,-1.190.98,
0.11,0.94,0.26,0.56,-1.050.84,
0.11,0.94,0.26,0.7,-1.120.56,
0.11,0.94,0.26,0.7,-1.050.84,
0.11,0.95,0.26,0.63,-1.190.77,
0.11,0.95,0.26,0.63,-1.260.77,
0.11,0.95,0.26,0.49,-1.330.84,
0.11,0.95,0.26,0.28,-1.470.70,
0.11,0.94,0.26,0.28,-1.680.98,
0.12,0.94,0.26,0.07,-1.681.05,
0.12,0.94,0.26,0.14,-1.611.12,
0.12,0.94,0.26,0.28,-1.401.19,
0.12,0.94,0.26,0.35,-1.051.40,
0.12,0.94,0.26,0.7,-0.701.19,
0.12,0.93,0.26,0.77,-0.351.40,
0.12,0.94,0.26,0.84,0.001.19,
0.12,0.94,0.26,1.05,0.140.98,
0.12,0.94,0.26,1.05,0.350.98,
0.12,0.94,0.26,0.98,0.421.05,
0.11,0.94,0.26,0.98,0.141.05,
0.12,0.94,0.26,0.98,0.141.05,
0.11,0.94,0.26,0.98,-0.070.98,
0.11,0.94,0.26,0.98,-0.140.77,
0.11,0.94,0.26,1.05,-0.140.77,
0.11,0.94,0.26,0.91,-0.280.70,
0.11,0.94,0.26,0.84,-0.280.70,
0.11,0.94,0.26,0.84,-0.421.05,
0.11,0.94,0.26,0.98,-0.491.05,
0.11,0.94,0.26,1.05,-0.140.70,
0.11,0.94,0.26,1.19,-0.280.84,
0.11,0.94,0.26,1.12,-0.140.70,
0.12,0.94,0.26,1.4,-0.420.84,
0.11,0.94,0.26,1.4,-0.280.77,
0.11,0.94,0.26,1.4,-0.350.77,
0.11,0.94,0.26,1.26,-0.280.56,
0.11,0.94,0.26,1.33,-0.490.56,
0.11,0.94,0.26,1.19,-0.490.63,
0.11,0.94,0.26,1.19,-0.490.35,
0.12,0.94,0.26,1.4,-0.560.56,
0.11,0.94,0.26,1.61,-0.280.49,
0.12,0.94,0.26,1.75,0.000.56,
0.12,0.94,0.26,1.82,0.070.42,
0.12,0.94,0.26,1.75,0.280.63,
0.11,0.94,0.26,1.61,0.351.26,
0.11,0.94,0.26,1.54,0.351.68,
0.11,0.95,0.26,1.26,0.141.54,
0.11,0.95,0.26,1.05,0.071.61,
0.11,0.95,0.26,1.12,0.141.75,
0.11,0.95,0.26,0.84,0.421.33,
0.11,0.95,0.26,0.77,0.351.12,
0.12,0.94,0.26,0.77,0.700.70,
0.12,0.93,0.26,0.98,0.630.63,
0.12,0.93,0.26,0.98,0.630.70,
0.12,0.94,0.25,1.12,0.841.12,
0.12,0.94,0.25,1.47,0.701.12,
0.12,0.94,0.25,1.47,0.911.19,
0.11,0.94,0.26,1.61,1.051.12,
0.11,0.94,0.26,1.61,1.261.05,
0.11,0.94,0.26,1.54,1.190.98,
0.12,0.95,0.26,1.61,1.191.26,
0.12,0.95,0.26,1.47,0.981.40,
0.11,0.95,0.26,1.33,0.981.40,
0.11,0.94,0.26,1.26,0.771.40,
0.11,0.94,0.25,1.19,0.561.26,
0.11,0.94,0.25,1.12,0.211.12,
0.1,0.94,0.25,0.98,0.211.47,
0.1,0.94,0.25,0.91,0.071.61,
0.1,0.94,0.25,0.77,0.071.19,
0.1,0.94,0.26,0.77,-0.141.12,
0.11,0.94,0.26,0.7,-0.210.84,
0.1,0.95,0.26,0.84,-0.280.77,
0.11,0.95,0.26,0.77,-0.560.56,
0.11,0.94,0.26,0.7,-0.700.77,
0.11,0.94,0.25,0.77,-0.910.84,
0.11,0.94,0.25,0.84,-1.190.77,
0.11,0.94,0.25,0.77,-1.401.05,
0.1,0.94,0.26,0.84,-1.330.91,
0.11,0.94,0.26,0.84,-1.190.56,
0.11,0.94,0.26,0.84,-1.260.77,
0.11,0.94,0.26,0.91,-0.980.21,
0.12,0.94,0.26,0.84,-0.840.49,
0.12,0.94,0.26,0.77,-0.700.49,
0.12,0.94,0.26,0.7,-0.700.42,
0.12,0.94,0.26,0.63,-0.771.05,
0.12,0.94,0.26,0.63,-0.770.98,
0.12,0.94,0.26,0.77,-0.630.84,
0.12,0.94,0.26,0.7,-0.491.19,
0.12,0.94,0.26,0.77,-0.560.84,
0.11,0.94,0.26,0.77,-0.421.19,
0.11,0.94,0.26,0.7,-0.211.05,
0.11,0.94,0.26,0.77,-0.280.98,
0.11,0.93,0.26,0.91,-0.351.12,
0.11,0.94,0.26,1.05,-0.351.19,
0.11,0.94,0.26,1.26,-0.491.05,
0.11,0.94,0.26,1.05,-0.351.26,
0.11,0.94,0.26,1.19,-0.561.05,
0.11,0.94,0.26,1.19,-0.631.05,
0.11,0.95,0.26,1.19,-0.770.63,
0.11,0.94,0.26,1.05,-0.770.91,
0.11,0.95,0.26,0.98,-0.701.05,
0.11,0.94,0.26,0.91,-0.770.84,
0.11,0.94,0.26,0.91,-0.910.84,
0.11,0.94,0.26,0.77,-0.770.91,
0.11,0.94,0.26,0.84,-0.841.05,
0.11,0.94,0.26,0.91,-0.771.05,
0.11,0.94,0.26,0.91,-0.630.70,
0.11,0.94,0.26,0.98,-0.561.05,
0.11,0.94,0.26,1.05,-0.280.70,
0.11,0.95,0.26,1.12,-0.281.19,
0.11,0.94,0.26,0.98,-0.141.26,
0.11,0.94,0.25,0.91,-0.141.19,
0.11,0.94,0.25,0.91,-0.211.26,
0.11,0.94,0.25,0.98,-0.211.26,
0.11,0.93,0.26,0.98,-0.071.40,
0.11,0.94,0.26,0.98,0.071.40,
0.11,0.94,0.26,0.91,0.211.54,
0.11,0.94,0.26,0.91,0.351.61,
0.11,0.95,0.26,0.84,0.281.47,
0.11,0.94,0.25,0.77,0.001.61,
0.11,0.95,0.25,0.63,-0.141.61,
0.11,0.95,0.25,0.63,-0.281.40,
0.11,0.94,0.26,0.63,-0.421.26,
0.11,0.94,0.25,0.63,-0.491.54,
0.11,0.94,0.25,0.91,-0.141.33,
0.11,0.94,0.25,0.91,-0.071.12,
0.11,0.94,0.25,0.77,0.140.91,
0.11,0.94,0.26,0.77,0.071.19,
0.11,0.94,0.25,0.7,0.001.33,
0.11,0.94,0.26,0.7,-0.141.26,
0.11,0.94,0.25,0.7,-0.141.61,
0.11,0.95,0.26,0.84,-0.491.47,
0.11,0.94,0.25,0.56,-0.630.98,
0.11,0.94,0.25,0.42,-0.771.19,
0.11,0.94,0.26,0.21,-0.981.12,
0.11,0.94,0.26,0.21,-1.050.91,
0.11,0.94,0.26,0.28,-0.980.91,
0.11,0.94,0.26,0.49,-0.700.91,
0.12,0.94,0.26,0.63,-0.490.84,
0.12,0.94,0.26,0.91,-0.491.05,
0.11,0.94,0.26,0.91,-0.351.26,
0.12,0.94,0.26,0.91,-0.211.26,
0.11,0.94,0.26,0.84,-0.281.26,
0.11,0.94,0.26,0.91,-0.491.19,
0.11,0.94,0.26,0.84,-0.491.26,
0.11,0.94,0.26,0.84,-0.560.98,
0.12,0.94,0.26,0.7,-0.491.12,
0.11,0.94,0.26,0.56,-0.280.77,
0.12,0.94,0.26,0.56,-0.210.98,
0.12,0.94,0.26,0.63,0.141.05,
0.12,0.94,0.26,0.7,0.350.84,
0.12,0.94,0.26,0.77,0.491.19,
0.12,0.94,0.26,0.98,0.491.54,
0.12,0.94,0.26,1.19,0.421.33,
0.12,0.94,0.26,1.19,0.421.47,
0.11,0.94,0.26,1.26,0.491.47,
0.11,0.94,0.26,1.33,0.631.54,
0.11,0.94,0.26,1.19,0.491.40,
0.11,0.94,0.26,1.19,0.561.26,
0.11,0.94,0.26,1.05,0.280.91,
0.11,0.94,0.26,0.91,0.071.19,
0.11,0.94,0.26,0.84,0.070.84,
0.11,0.94,0.25,0.84,-0.280.84,
0.11,0.94,0.25,0.91,-0.490.91,
0.11,0.94,0.25,1.12,-0.700.77,
0.1,0.94,0.26,0.98,-0.561.05,
0.1,0.94,0.26,0.91,-0.700.98,
0.1,0.94,0.26,0.91,-0.560.77,
0.1,0.94,0.26,0.84,-0.630.98,
0.11,0.94,0.26,0.84,-0.770.91,
0.11,0.94,0.26,0.7,-0.630.70,
0.11,0.94,0.26,0.7,-0.700.77,
0.11,0.94,0.25,0.63,-0.700.77,
0.11,0.94,0.25,0.63,-0.910.63,
0.11,0.94,0.25,0.63,-1.190.84,
0.11,0.94,0.25,0.63,-1.190.84,
0.11,0.94,0.26,0.77,-0.980.49,
0.11,0.94,0.26,0.91,-0.980.70,
0.11,0.94,0.27,1.05,-0.420.56,
0.12,0.94,0.27,1.19,-0.420.35,
0.12,0.94,0.27,1.26,-0.420.42,
0.12,0.94,0.27,1.4,-0.490.42,
0.12,0.94,0.26,1.33,-0.490.49,
0.12,0.94,0.26,1.26,-0.700.84,
0.12,0.94,0.25,1.26,-0.210.70,
0.12,0.94,0.25,1.19,-0.071.05,
0.12,0.94,0.25,1.12,0.350.98,
0.11,0.94,0.26,0.91,0.491.40,
0.11,0.94,0.26,0.98,0.631.54,
0.11,0.94,0.27,0.98,0.701.47,
0.11,0.94,0.27,1.05,0.771.19,
0.12,0.94,0.26,1.05,0.631.33,
0.12,0.94,0.26,0.91,0.631.12,
0.12,0.94,0.26,0.77,0.421.19,
0.12,0.94,0.25,0.91,0.211.12,
0.11,0.94,0.25,1.19,0.070.91,
0.11,0.94,0.25,1.26,0.001.26,
0.11,0.94,0.25,1.26,0.071.12,
0.11,0.94,0.26,1.54,0.281.05,
0.11,0.94,0.26,1.61,0.281.05,
0.11,0.94,0.26,1.47,0.350.98,
0.11,0.95,0.26,1.12,0.631.05,
0.11,0.94,0.26,1.05,0.351.05,
0.12,0.94,0.26,1.05,0.001.05,
0.12,0.94,0.26,1.05,-0.350.98,
0.11,0.94,0.26,0.91,-0.771.33,
0.11,0.94,0.26,0.91,-1.051.54,
0.11,0.94,0.26,0.77,-0.841.26,
0.11,0.94,0.25,0.84,-0.911.40,
0.11,0.94,0.25,0.84,-0.771.12,
0.11,0.94,0.26,0.98,-0.561.12,
0.11,0.94,0.26,0.98,-0.631.05,
0.11,0.94,0.26,1.05,-0.560.98,
0.11,0.95,0.26,0.91,-0.491.12,
0.11,0.94,0.25,0.84,-0.701.05,
0.1,0.94,0.25,0.7,-0.911.12,
0.1,0.94,0.25,0.63,-1.121.12,
0.1,0.94,0.25,0.49,-1.331.33,
0.11,0.94,0.25,0.42,-1.471.12,
0.11,0.94,0.26,0.56,-1.470.77,
0.11,0.94,0.26,0.49,-1.471.12,
0.11,0.94,0.26,0.63,-1.400.91,
0.11,0.94,0.26,0.49,-1.050.49,
0.11,0.94,0.26,0.7,-0.910.77,
0.12,0.94,0.26,0.63,-0.980.70,
0.12,0.94,0.26,0.63,-1.050.77,
0.12,0.94,0.26,0.77,-1.190.84,
0.12,0.94,0.26,0.98,-1.260.98,
0.12,0.94,0.26,0.91,-1.190.98,
0.11,0.94,0.26,0.84,-0.911.19,
0.11,0.94,0.26,0.84,-0.631.12,
0.12,0.94,0.26,0.77,-0.071.19,
0.12,0.94,0.26,0.91,0.071.05,
0.11,0.94,0.26,0.77,0.281.12,
0.11,0.94,0.26,0.84,0.351.05,
0.12,0.94,0.26,0.77,0.491.26,
0.11,0.94,0.26,0.91,0.351.33,
0.11,0.94,0.26,0.91,0.421.54,
0.11,0.94,0.26,0.84,0.211.54,
0.11,0.94,0.26,0.84,0.141.19,
0.11,0.94,0.26,0.77,0.001.19,
0.11,0.94,0.26,0.84,0.211.33,
0.11,0.94,0.26,0.77,0.001.12,
0.11,0.94,0.26,0.84,0.211.47,
0.11,0.94,0.26,0.77,0.281.26,
0.11,0.94,0.26,0.63,0.001.33,
0.11,0.94,0.26,0.7,-0.141.47,
0.11,0.94,0.25,0.63,-0.211.47,
0.11,0.94,0.26,0.84,-0.491.40,
0.1,0.94,0.25,0.91,-0.631.47,
0.11,0.94,0.26,1.12,-0.771.61,
0.11,0.94,0.26,1.05,-0.701.40,
0.11,0.95,0.26,0.98,-0.631.12,
0.11,0.94,0.26,0.84,-0.561.12,
0.11,0.94,0.26,0.7,-0.421.12,
0.12,0.94,0.26,0.7,-0.210.56,
0.12,0.94,0.26,0.63,0.070.77,
0.12,0.94,0.26,0.7,0.140.70,
0.12,0.94,0.26,0.7,0.280.77,
0.12,0.94,0.26,0.77,0.420.91,
0.11,0.94,0.25,0.7,0.141.26,
0.11,0.93,0.25,0.98,0.001.12,
0.11,0.93,0.26,1.12,0.001.40,
0.11,0.94,0.25,1.19,0.071.54,
0.11,0.94,0.26,1.26,0.141.33,
0.11,0.94,0.26,0.98,0.141.40,
0.11,0.94,0.26,0.77,0.141.19,
0.11,0.95,0.26,0.63,0.071.33,
0.11,0.95,0.26,0.49,-0.211.33,
0.11,0.94,0.26,0.49,-0.491.26,
0.11,0.95,0.26,0.42,-0.561.12,
0.11,0.94,0.25,0.42,-0.701.40,
0.11,0.94,0.25,0.56,-0.981.19,
0.11,0.94,0.25,0.63,-1.051.26,
0.1,0.94,0.26,0.7,-0.981.47,
0.11,0.94,0.26,0.7,-0.911.33,
0.11,0.94,0.26,0.7,-0.560.98,
0.11,0.94,0.26,0.63,-0.280.91,
0.12,0.94,0.26,0.63,-0.211.19,
0.12,0.94,0.26,0.63,-0.210.91,
0.12,0.94,0.26,0.56,-0.141.26,
0.12,0.94,0.26,0.63,-0.491.05,
0.12,0.94,0.26,0.63,-0.840.84,
0.12,0.94,0.26,0.63,-0.770.84,
0.12,0.94,0.26,0.77,-0.911.05,
0.12,0.93,0.26,0.98,-0.771.12,
0.12,0.93,0.26,1.19,-0.490.91,
0.12,0.94,0.26,1.19,-0.141.47,
0.12,0.94,0.26,1.19,0.141.05,
0.12,0.94,0.26,1.19,0.351.33,
0.12,0.95,0.26,0.91,0.141.54,
0.11,0.95,0.26,0.84,0.001.54,
0.11,0.94,0.26,0.7,-0.281.61,
0.11,0.94,0.26,0.49,-0.561.47,
0.11,0.94,0.26,0.49,-0.841.54,
0.11,0.94,0.26,0.49,-0.771.40,
0.11,0.94,0.26,0.49,-0.561.19,
0.11,0.94,0.26,0.49,-0.490.77,
0.12,0.94,0.26,0.7,-0.350.70,
0.12,0.94,0.26,0.84,-0.210.63,
0.12,0.94,0.26,1.05,0.070.49,
0.12,0.94,0.26,1.19,0.280.49,
0.12,0.94,0.26,1.4,0.070.49,
0.12,0.94,0.25,1.4,-0.070.70,
0.12,0.94,0.26,1.33,-0.280.77,
0.12,0.94,0.26,1.26,-0.351.40,
0.12,0.94,0.26,1.12,-0.421.19,
0.12,0.94,0.26,0.98,-0.491.40,
0.12,0.94,0.26,0.98,-0.211.40,
0.12,0.94,0.26,0.84,-0.211.19,
0.12,0.94,0.26,0.84,0.071.12,
0.12,0.94,0.26,0.77,0.001.19,
0.12,0.94,0.26,0.77,0.001.40,
0.11,0.94,0.26,0.77,-0.141.19,
0.11,0.94,0.25,0.84,-0.281.47,
0.11,0.94,0.25,0.98,-0.421.40,
0.11,0.94,0.26,0.91,-0.561.19,
0.11,0.94,0.26,0.91,-0.631.47,
0.11,0.94,0.26,0.63,-0.491.40,
0.11,0.94,0.26,0.63,-0.421.12,
0.11,0.94,0.26,0.49,-0.490.98,
0.11,0.94,0.26,0.42,-0.631.05,
0.11,0.94,0.26,0.42,-0.840.84,
0.11,0.94,0.26,0.49,-0.981.05,
0.11,0.94,0.26,0.63,-0.980.49,
0.11,0.94,0.26,0.77,-1.120.77,
0.11,0.94,0.26,0.77,-0.910.84,
0.11,0.94,0.26,0.91,-0.770.77,
0.12,0.94,0.26,0.84,-0.630.77,
0.12,0.94,0.26,0.91,-0.560.84,
0.12,0.94,0.26,0.91,-0.490.77,
0.12,0.94,0.26,0.84,-0.350.77,
0.12,0.94,0.26,0.98,-0.281.26,
0.12,0.94,0.26,0.98,-0.421.19,
0.12,0.94,0.26,0.98,-0.350.98,
0.12,0.94,0.26,1.05,-0.561.12,
0.12,0.94,0.26,1.12,-0.490.91,
0.11,0.94,0.26,1.05,-0.420.77,
0.12,0.94,0.26,0.98,-0.281.05,
0.11,0.94,0.26,0.84,-0.280.84,
0.11,0.94,0.26,0.7,-0.140.84,
0.11,0.94,0.26,0.77,-0.421.12,
0.11,0.94,0.26,0.77,-0.701.12,
0.11,0.94,0.26,0.63,-0.491.12,
0.11,0.94,0.25,0.77,-0.700.98,
0.11,0.94,0.26,0.98,-0.561.12,
0.11,0.94,0.26,1.12,-0.700.84,
0.11,0.94,0.26,1.12,-0.561.12,
0.11,0.94,0.26,1.26,-0.700.84,
0.11,0.94,0.26,1.26,-0.560.84,
0.11,0.94,0.26,1.19,-0.700.70,
0.11,0.94,0.26,0.98,-0.630.77,
0.11,0.95,0.26,0.84,-0.771.19,
0.11,0.95,0.26,0.42,-0.841.05,
0.11,0.94,0.26,0.42,-0.910.91,
0.11,0.94,0.26,0.42,-1.050.98,
0.11,0.93,0.26,0.35,-0.911.26,
0.12,0.93,0.26,0.63,-0.770.98,
0.12,0.93,0.26,0.7,-0.490.98,
0.12,0.94,0.26,0.84,-0.141.05,
0.12,0.94,0.26,1.05,0.211.19,
0.12,0.94,0.26,1.26,0.421.05,
0.12,0.94,0.26,1.26,0.631.05,
0.12,0.94,0.26,1.26,0.561.05,
0.12,0.94,0.26,1.05,0.211.40,
0.11,0.94,0.26,1.05,0.071.47,
0.11,0.94,0.26,0.98,-0.071.40,
0.11,0.94,0.26,0.84,-0.141.61,
0.11,0.94,0.26,0.84,-0.071.40,
0.11,0.94,0.26,0.84,0.001.54,
0.11,0.94,0.26,0.91,0.211.19,
0.11,0.94,0.26,0.98,0.281.61,
0.11,0.94,0.26,0.91,0.491.40,
0.12,0.94,0.26,0.84,0.420.98,
0.11,0.94,0.26,0.84,0.071.19,
0.11,0.94,0.26,0.91,-0.211.40,
0.11,0.94,0.26,1.19,-0.421.40,
0.11,0.94,0.26,1.26,-0.421.12,
0.11,0.94,0.26,1.12,-0.491.19,
0.11,0.94,0.26,1.12,-0.630.98,
0.11,0.94,0.26,1.05,-0.560.98,
0.11,0.94,0.26,0.77,-0.701.05,
0.11,0.94,0.26,0.7,-0.700.91,
0.11,0.94,0.26,0.56,-0.841.05,
0.11,0.94,0.26,0.63,-0.911.05,
0.11,0.94,0.26,0.63,-0.840.77,
0.11,0.94,0.26,0.56,-0.700.91,
0.12,0.94,0.26,0.7,-0.561.05,
0.11,0.94,0.26,0.77,-0.350.84,
0.11,0.94,0.26,0.84,-0.350.98,
0.12,0.94,0.26,0.84,-0.631.05,
0.12,0.94,0.26,0.84,-0.420.91,
0.11,0.94,0.26,0.77,-0.421.19,
0.11,0.94,0.26,0.84,-0.631.05,
0.12,0.94,0.26,0.77,-0.560.98,
0.11,0.94,0.26,0.98,-0.771.26,
0.11,0.94,0.26,0.84,-0.630.98,
0.11,0.94,0.26,0.84,-0.631.19,
0.11,0.95,0.26,0.77,-0.631.12,
0.09,0.94,0.28,-2.1,-2.101.26,
0.1,0.92,0.29,-1.96,-2.170.35,
0.11,0.92,0.29,-1.75,-1.89-0.14,
0.12,0.92,0.29,-1.68,-1.96-0.35,
0.13,0.92,0.29,-1.47,-2.17-0.35,
0.13,0.92,0.29,-1.05,-2.38-0.21,
0.14,0.92,0.3,-0.84,-2.520.35,
0.14,0.93,0.3,-0.49,-2.450.49,
0.14,0.93,0.3,-0.42,-2.380.49,
0.14,0.93,0.3,-0.28,-2.171.19,
0.15,0.93,0.3,0,-1.820.77,
0.15,0.93,0.3,0.21,-1.050.70,
0.16,0.93,0.3,0.21,-0.420.98,
0.16,0.92,0.29,0.42,0.141.05,
0.15,0.92,0.28,0.56,0.631.12,
0.14,0.91,0.28,0.98,0.981.61,
0.13,0.92,0.28,1.47,1.471.75,
0.12,0.93,0.28,1.75,1.401.40,
0.12,0.93,0.28,1.82,0.631.47,
0.12,0.93,0.28,1.89,0.211.05,
0.12,0.93,0.29,1.75,0.070.98,
0.13,0.93,0.29,1.47,0.210.84,
0.13,0.94,0.28,0.91,0.351.26,
0.14,0.94,0.28,0.56,0.141.68,
0.14,0.93,0.28,0.42,-0.421.75,
0.14,0.93,0.28,0.49,-0.841.61,
0.13,0.94,0.28,0.77,-0.841.47,
0.12,0.93,0.27,0.91,-0.841.33,
0.12,0.93,0.27,0.98,-1.120.84,
0.11,0.93,0.27,1.19,-1.610.42,
0.1,0.93,0.27,1.47,-2.310.14,
0.1,0.93,0.27,1.61,-3.15-0.21,
0.1,0.94,0.28,1.54,-4.13-0.63,
0.1,0.94,0.28,1.33,-4.83-1.12,
0.1,0.94,0.28,0.77,-5.67-1.33,
0.11,0.94,0.28,0.42,-6.72-1.61,
0.11,0.94,0.28,0.28,-7.63-1.96,
0.12,0.93,0.28,0.14,-8.33-2.03,
0.13,0.93,0.28,0.14,-8.68-2.24,
0.14,0.92,0.29,0.35,-8.47-2.17,
0.14,0.93,0.32,1.19,-8.26-2.31,
0.14,0.93,0.31,1.33,-8.68-1.89,
0.15,0.93,0.3,2.03,-8.96-1.40,
0.16,0.93,0.28,2.52,-8.89-0.91,
0.16,0.93,0.28,1.96,-7.98-0.77,
0.17,0.93,0.28,0.21,-6.79-0.63,
0.17,0.92,0.28,-0.49,-5.25-0.35,
0.17,0.92,0.28,-0.35,-3.920.77,
0.17,0.92,0.29,-0.56,-3.220.77,
0.17,0.93,0.29,-0.14,-2.661.19,
0.17,0.93,0.29,0.56,-1.891.26,
0.17,0.92,0.28,0.91,-0.911.05,
0.16,0.92,0.28,0.84,0.280.63,
0.16,0.92,0.28,0.84,1.470.77,
0.16,0.92,0.28,1.12,2.311.05,
0.15,0.92,0.28,1.26,3.150.91,
0.15,0.93,0.28,1.54,3.571.61,
0.14,0.93,0.28,1.75,3.711.82,
0.14,0.92,0.28,1.89,3.712.31,
0.13,0.93,0.28,1.68,3.922.87,
0.13,0.94,0.28,1.54,3.922.80,
0.12,0.94,0.29,1.61,3.642.66,
0.12,0.94,0.29,1.61,3.152.10,
0.12,0.94,0.29,1.4,2.732.17,
0.12,0.93,0.29,1.26,2.381.54,
0.11,0.93,0.29,1.19,2.241.26,
0.11,0.93,0.28,1.12,2.101.05,
0.11,0.93,0.28,0.91,1.611.61,
0.11,0.93,0.28,0.7,0.981.61,
0.12,0.94,0.28,0.7,0.631.40,
0.12,0.94,0.29,0.84,0.561.47,
0.12,0.94,0.29,1.05,0.211.47,
0.12,0.93,0.29,1.05,0.141.33,
0.12,0.93,0.29,1.05,0.141.40,
0.13,0.93,0.29,0.98,0.351.05,
0.13,0.93,0.29,0.98,0.350.77,
0.13,0.93,0.28,0.63,0.280.91,
0.13,0.93,0.28,0.7,0.000.91,
0.13,0.93,0.29,1.12,0.000.77,
0.13,0.93,0.28,1.12,0.140.84,
0.13,0.93,0.28,1.54,0.420.77,
0.13,0.93,0.28,1.75,0.350.49,
0.13,0.93,0.28,1.75,0.210.35,
0.13,0.92,0.28,1.75,0.070.42,
0.14,0.93,0.28,1.68,0.35-0.07,
0.14,0.93,0.28,1.75,0.630.14,
0.14,0.94,0.28,1.61,0.840.56,
0.14,0.94,0.28,1.47,0.910.35,
0.14,0.93,0.28,1.4,0.630.63,
0.14,0.93,0.28,1.12,0.420.63,
0.14,0.93,0.28,0.91,0.350.84,
0.14,0.93,0.28,1.05,0.000.98,
0.14,0.93,0.28,1.05,0.141.19,
0.14,0.93,0.28,1.19,0.211.26,
0.14,0.93,0.28,1.4,0.211.19,
0.13,0.93,0.28,1.47,0.421.26,
0.13,0.93,0.27,1.47,0.280.70,
0.13,0.93,0.28,1.54,0.490.84,
0.13,0.93,0.28,1.54,0.630.91,
0.13,0.93,0.28,1.75,0.490.91,
0.12,0.93,0.28,1.82,0.280.49,
0.13,0.94,0.28,1.68,-0.140.49,
0.13,0.94,0.28,1.54,-0.350.56,
0.13,0.94,0.28,1.4,-0.700.35,
0.13,0.94,0.29,1.19,-0.910.21,
0.13,0.94,0.29,0.91,-0.980.28,
0.13,0.93,0.28,0.84,-0.770.14,
0.13,0.93,0.28,0.84,-0.630.07,
0.13,0.93,0.28,0.91,-0.770.14,
0.13,0.93,0.28,1.12,-0.840.35,
0.13,0.93,0.27,1.26,-0.630.77,
0.13,0.92,0.27,1.33,-0.561.05,
0.13,0.92,0.28,1.47,-0.560.91,
0.13,0.93,0.28,1.61,-0.071.05,
0.13,0.94,0.28,1.61,-0.071.12,
0.12,0.94,0.28,1.54,-0.280.98,
0.12,0.94,0.28,1.4,-0.210.56,
0.12,0.94,0.28,1.19,-0.280.28,
0.12,0.93,0.27,1.19,-0.560.28,
0.12,0.93,0.28,1.26,-0.770.21,
0.12,0.93,0.28,1.33,-0.770.42,
0.12,0.93,0.28,1.4,-0.770.35,
0.12,0.93,0.28,1.4,-0.770.56,
0.12,0.94,0.29,1.19,-0.630.63,
0.12,0.94,0.28,0.84,-0.490.70,
0.12,0.93,0.29,0.63,-0.280.77,
0.13,0.93,0.29,0.49,-0.280.56,
0.13,0.93,0.28,0.35,-0.210.77,
0.13,0.93,0.28,0.42,-0.280.84,
0.13,0.93,0.28,0.49,-0.280.91,
0.13,0.93,0.28,0.84,-0.630.98,
0.13,0.93,0.28,1.12,-0.771.19,
0.13,0.93,0.28,1.26,-0.701.19,
0.12,0.93,0.28,1.05,-0.421.05,
0.12,0.94,0.28,0.63,-0.211.05,
0.12,0.94,0.28,0.49,-0.210.98,
0.12,0.93,0.28,0.42,-0.630.84,
0.12,0.93,0.28,0.35,-0.771.12,
0.13,0.93,0.28,0.35,-1.050.98,
0.13,0.93,0.28,0.35,-1.051.26,
0.13,0.93,0.28,0.49,-1.261.19,
0.13,0.93,0.28,0.42,-1.331.26,
0.12,0.93,0.28,0.49,-1.261.26,
0.12,0.93,0.28,0.56,-1.120.98,
0.12,0.93,0.28,0.7,-1.120.98,
0.13,0.93,0.28,0.63,-1.050.84,
0.13,0.93,0.28,0.77,-1.051.05,
0.13,0.93,0.28,0.91,-0.910.98,
0.13,0.93,0.28,0.91,-0.841.19,
0.13,0.93,0.28,1.05,-0.701.33,
0.13,0.93,0.28,1.12,-0.490.84,
0.12,0.93,0.28,1.26,-0.140.91,
0.12,0.93,0.28,1.4,-0.420.91,
0.13,0.93,0.28,1.19,-0.351.12,
0.13,0.94,0.28,0.98,-0.491.05,
0.13,0.94,0.28,0.63,-0.421.26,
0.12,0.94,0.28,0.35,-0.351.12,
0.13,0.94,0.28,0.35,-0.561.33,
0.13,0.94,0.28,0.28,-0.421.47,
0.13,0.93,0.28,0.56,-0.211.40,
0.13,0.93,0.28,0.63,-0.071.61,
0.13,0.93,0.28,0.7,0.211.47,
0.13,0.93,0.28,0.91,0.211.47,
0.13,0.93,0.28,1.05,0.211.05,
0.12,0.93,0.28,1.19,-0.071.40,
0.12,0.93,0.28,1.12,-0.281.05,
0.12,0.93,0.28,1.19,-0.421.19,
0.12,0.93,0.28,1.19,-0.771.19,
0.12,0.94,0.28,0.98,-0.841.68,
0.12,0.94,0.28,0.77,-1.050.98,
0.12,0.93,0.28,0.35,-0.981.26,
0.12,0.93,0.28,0.35,-0.980.91,
0.13,0.93,0.28,0.14,-0.841.12,
0.13,0.93,0.28,0,-1.051.12,
0.13,0.93,0.28,-0.14,-1.331.19,
0.13,0.93,0.28,-0.14,-1.541.12,
0.13,0.93,0.28,0.07,-1.401.33,
0.13,0.93,0.28,0.21,-1.261.54,
0.14,0.93,0.28,0.7,-1.261.47,
0.13,0.93,0.28,1.26,-1.121.19,
0.13,0.93,0.28,1.33,-0.841.40,
0.13,0.93,0.28,1.4,-0.771.19,
0.13,0.93,0.28,1.33,-0.351.26,
0.13,0.94,0.28,1.26,-0.421.12,
0.12,0.94,0.28,1.05,-0.491.12,
0.12,0.93,0.29,0.84,-0.490.91,
0.13,0.93,0.28,0.7,-0.350.84,
0.13,0.93,0.28,0.49,-0.420.49,
0.13,0.93,0.28,0.35,-0.561.26,
0.13,0.92,0.28,0.49,-0.561.12,
0.13,0.93,0.28,0.84,-0.281.33,
0.13,0.93,0.28,1.12,-0.211.12,
0.13,0.93,0.28,1.26,-0.141.19,
0.13,0.93,0.28,1.4,-0.280.91,
0.13,0.93,0.29,1.68,-0.420.98,
0.13,0.93,0.29,1.75,-0.350.70,
0.14,0.93,0.28,1.82,-0.070.42,
0.13,0.93,0.28,1.75,-0.280.77,
0.13,0.93,0.28,1.96,0.000.98,
0.13,0.93,0.28,2.17,0.070.77,
0.13,0.94,0.28,2.1,0.280.63,
0.13,0.93,0.28,1.96,0.210.56,
0.13,0.93,0.28,2.03,0.280.49,
0.13,0.93,0.28,2.17,0.490.70,
0.13,0.93,0.28,2.1,0.350.49,
0.13,0.93,0.28,2.24,0.140.42,
0.13,0.93,0.28,2.45,-0.070.56,
0.13,0.93,0.28,2.59,-0.070.49,
0.13,0.94,0.28,2.66,-0.070.49,
0.13,0.94,0.28,2.52,0.210.56,
0.13,0.94,0.28,2.24,0.280.28,
0.12,0.94,0.28,1.61,0.280.77,
0.13,0.94,0.28,1.19,0.280.63,
0.12,0.94,0.28,0.98,0.000.63,
0.12,0.94,0.28,0.77,-0.140.70,
0.13,0.94,0.29,0.42,-0.630.91,
0.13,0.94,0.28,0.28,-0.700.91,
0.13,0.93,0.28,0.28,-0.560.91,
0.13,0.92,0.28,0.42,-0.141.05,
0.13,0.92,0.28,0.49,0.141.19,
0.13,0.92,0.28,0.77,-0.071.40,
0.13,0.92,0.28,0.98,0.001.47,
0.13,0.93,0.28,1.05,-0.071.19,
0.13,0.93,0.28,1.12,-0.211.26,
0.12,0.94,0.28,1.12,-0.421.26,
0.12,0.94,0.28,0.84,-0.561.12,
0.12,0.94,0.28,0.63,-0.911.12,
0.12,0.93,0.28,0.42,-1.191.05,
0.12,0.93,0.28,0.49,-1.190.84,
0.12,0.93,0.28,0.49,-1.260.84,
0.12,0.93,0.28,0.63,-1.540.70,
0.12,0.93,0.27,0.63,-1.820.56,
0.13,0.93,0.27,0.7,-1.680.35,
0.12,0.93,0.27,0.91,-1.400.56,
0.13,0.94,0.27,1.19,-1.190.84,
0.12,0.94,0.28,1.19,-1.050.63,
0.13,0.93,0.28,1.19,-0.700.70,
0.13,0.93,0.28,0.98,-0.350.77,
0.13,0.94,0.28,0.63,-0.210.63,
0.13,0.93,0.29,0.42,0.000.28,
0.13,0.93,0.28,0.28,-0.350.56,
0.13,0.93,0.28,0.42,-0.490.35,
0.13,0.93,0.28,0.56,-0.560.63,
0.13,0.93,0.27,0.7,-0.561.12,
0.13,0.93,0.27,1.12,-0.561.19,
0.13,0.93,0.28,1.05,-0.421.19,
0.13,0.93,0.28,1.05,-0.421.26,
0.13,0.93,0.28,1.12,-0.211.12,
0.13,0.93,0.28,1.05,0.281.26,
0.12,0.94,0.28,0.91,0.421.12,
0.12,0.94,0.28,0.84,0.351.12,
0.12,0.93,0.28,0.91,0.491.19,
0.12,0.93,0.27,1.05,0.631.40,
0.12,0.93,0.27,1.12,0.491.26,
0.12,0.93,0.27,1.12,0.421.33,
0.12,0.93,0.27,1.19,0.141.47,
0.12,0.93,0.28,1.26,-0.071.33,
0.12,0.93,0.28,1.19,-0.281.19,
0.12,0.93,0.28,1.05,-0.700.91,
0.12,0.94,0.28,0.91,-0.910.84,
0.12,0.93,0.28,0.84,-0.980.42,
0.12,0.93,0.28,0.91,-1.050.14,
0.13,0.93,0.29,1.26,-1.190.00,
0.13,0.94,0.3,1.89,-1.190.14,
0.13,0.93,0.29,2.8,-1.540.49,
0.14,0.94,0.28,3.36,-1.750.42,
0.13,0.94,0.28,3.08,-1.680.77,
0.13,0.94,0.27,2.38,-1.540.77,
0.13,0.93,0.27,1.61,-0.840.49,
0.13,0.93,0.27,1.47,-0.840.70,
0.13,0.93,0.27,1.19,-1.051.05,
0.13,0.92,0.28,1.68,-0.981.26,
0.13,0.92,0.28,1.89,-0.561.26,
0.13,0.92,0.28,2.03,0.070.98,
0.13,0.93,0.27,1.96,0.771.26,
0.13,0.93,0.27,1.89,1.050.70,
0.13,0.93,0.27,1.61,0.840.56,
0.13,0.93,0.28,1.68,0.560.63,
0.14,0.93,0.28,1.82,0.420.77,
0.13,0.93,0.28,1.96,0.561.12,
0.13,0.93,0.28,1.82,0.771.33,
0.13,0.94,0.28,1.33,0.701.68,
0.12,0.93,0.28,1.05,0.631.47,
0.12,0.93,0.28,0.63,0.701.61,
0.12,0.93,0.28,0.35,1.051.54,
0.13,0.93,0.28,0.42,1.401.26,
0.13,0.93,0.28,0.77,1.471.12,
0.12,0.93,0.28,0.77,1.331.54,
0.12,0.93,0.27,0.91,0.701.75,
0.12,0.93,0.27,1.05,0.212.03,
0.12,0.93,0.27,1.19,0.001.96,
0.12,0.94,0.28,1.19,0.001.75,
0.12,0.94,0.27,1.33,0.281.54,
0.11,0.94,0.28,1.12,0.351.26,
0.11,0.94,0.28,0.98,0.420.56,
0.12,0.94,0.28,0.91,0.070.49,
0.12,0.93,0.27,0.91,-0.070.35,
0.12,0.93,0.27,1.05,-0.420.42,
0.12,0.93,0.27,1.26,-0.490.42,
0.12,0.93,0.28,1.33,-0.630.70,
0.13,0.93,0.28,1.54,-0.700.70,
0.12,0.94,0.28,1.33,-0.280.42,
0.13,0.94,0.28,1.19,-0.070.35,
0.13,0.94,0.28,0.91,0.000.56,
0.13,0.93,0.27,0.84,0.210.77,
0.13,0.93,0.27,1.12,0.280.84,
0.13,0.93,0.27,1.4,0.490.98,
0.13,0.93,0.27,1.68,0.910.98,
0.13,0.93,0.27,1.82,1.260.91,
0.13,0.93,0.27,1.82,1.400.98,
0.13,0.93,0.28,1.75,1.400.77,
0.13,0.93,0.28,1.82,1.470.77,
0.13,0.93,0.28,1.68,1.471.05,
0.13,0.94,0.27,1.47,1.610.77,
0.13,0.94,0.27,1.4,1.540.77,
0.13,0.94,0.27,0.98,1.331.33,
0.13,0.94,0.28,0.77,1.331.47,
0.13,0.93,0.27,0.84,0.981.40,
0.13,0.94,0.27,0.84,0.841.96,
0.12,0.94,0.27,0.91,0.772.03,
0.12,0.93,0.27,0.84,0.561.96,
0.12,0.94,0.27,0.84,0.351.96,
0.12,0.94,0.27,1.05,0.211.96,
0.11,0.93,0.27,1.26,0.071.47,
0.11,0.94,0.28,1.19,0.071.61,
0.11,0.93,0.27,1.05,0.141.19,
0.12,0.93,0.27,0.77,0.071.19,
0.12,0.93,0.27,0.35,-0.421.05,
0.12,0.93,0.27,0.28,-0.700.98,
0.13,0.93,0.27,0.56,-0.701.12,
0.13,0.93,0.27,0.91,-0.491.05,
0.13,0.94,0.27,1.05,-0.210.91,
0.13,0.94,0.28,1.19,0.001.26,
0.13,0.94,0.28,1.26,0.001.33,
0.13,0.94,0.28,1.05,0.210.84,
0.13,0.94,0.28,0.7,0.351.12,
0.13,0.93,0.28,0.49,0.351.26,
0.13,0.93,0.27,0.56,0.561.19,
0.13,0.93,0.27,0.7,0.771.47,
0.13,0.93,0.27,0.98,0.771.54,
0.13,0.93,0.27,1.12,1.051.33,
0.13,0.93,0.28,1.19,1.261.19,
0.12,0.93,0.28,1.19,1.541.33,
0.13,0.94,0.28,1.19,1.611.26,
0.12,0.94,0.27,1.19,1.611.05,
0.12,0.94,0.27,0.91,1.541.40,
0.25,0.94,0.27,0.7,1.471.40,
0.12,0.94,0.28,0.35,1.541.82,
0.12,0.94,0.27,0.07,1.401.47,
0.12,0.94,0.27,-0.07,1.121.61,
0.12,0.94,0.27,-0.21,1.051.61,
0.12,0.94,0.27,-0.14,0.841.47,
0.12,0.93,0.27,0.28,0.771.05,
0.12,0.93,0.27,0.77,1.120.84,
0.13,0.92,0.28,1.68,1.540.42,
0.12,0.93,0.28,2.24,2.100.28,
0.12,0.93,0.28,2.52,2.310.07,
0.12,0.94,0.27,2.45,2.17-0.07,
0.13,0.94,0.27,1.89,1.680.07,
0.13,0.94,0.27,1.61,1.050.56,
0.13,0.94,0.28,1.26,0.630.84,
0.13,0.94,0.28,0.77,0.211.05,
0.12,0.93,0.28,0.63,0.071.26,
0.13,0.93,0.28,0.63,0.071.61,
0.13,0.93,0.28,0.77,0.421.40,
0.13,0.92,0.28,0.7,0.911.19,
0.12,0.92,0.27,0.84,1.121.33,
0.13,0.92,0.27,0.98,1.750.63,
0.13,0.92,0.28,1.19,1.960.63,
0.13,0.93,0.28,1.19,2.310.63,
0.13,0.93,0.27,1.33,2.450.63,
0.13,0.94,0.27,1.4,2.100.84,
0.12,0.94,0.27,1.54,1.401.26,
0.12,0.94,0.27,1.47,0.911.54,
0.11,0.94,0.27,1.33,0.211.82,
0.11,0.94,0.27,1.12,-0.422.03,
0.11,0.94,0.27,0.91,-0.631.89,
0.11,0.93,0.27,0.84,-0.631.40,
0.11,0.93,0.28,0.56,-0.281.61,
0.11,0.93,0.28,0.35,0.140.91,
0.12,0.93,0.28,0.14,0.280.49,
0.12,0.93,0.27,0.28,0.210.56,
0.12,0.93,0.27,0.35,0.000.77,
0.12,0.93,0.27,0.63,-0.420.70,
0.13,0.93,0.28,0.77,-0.631.19,
0.13,0.93,0.28,0.91,-0.700.98,
0.13,0.93,0.28,0.84,-0.421.26,
0.13,0.93,0.28,0.63,-0.141.40,
0.13,0.93,0.28,0.7,0.281.26,
0.12,0.94,0.28,0.63,0.631.19,
0.12,0.94,0.28,0.63,0.561.47,
0.12,0.94,0.27,0.77,0.351.54,
0.12,0.94,0.27,0.7,-0.071.47,
0.12,0.94,0.27,0.77,-0.421.68,
0.11,0.93,0.27,0.84,-0.701.40,
0.12,0.93,0.27,0.91,-0.701.19,
0.11,0.93,0.27,0.98,-0.771.19,
0.12,0.93,0.27,0.77,-0.630.84,
0.12,0.93,0.27,0.7,-0.560.77,
0.12,0.93,0.27,0.84,-0.350.63,
0.12,0.93,0.28,0.84,-0.280.28,
0.12,0.93,0.28,0.91,0.000.21,
0.12,0.93,0.28,1.12,0.140.28,
0.12,0.93,0.28,1.26,0.420.49,
0.13,0.94,0.28,1.26,0.700.21,
0.13,0.94,0.28,1.26,0.210.77,
0.13,0.94,0.28,0.91,0.350.84,
0.13,0.94,0.28,0.63,0.141.26,
0.12,0.94,0.28,0.28,-0.211.47,
0.12,0.93,0.27,0.21,-0.211.61,
0.12,0.93,0.27,0.56,-0.281.75,
0.12,0.93,0.27,0.63,-0.071.68,
0.12,0.93,0.27,0.98,-0.141.75,
0.11,0.93,0.28,1.4,0.071.54,
0.11,0.93,0.28,1.47,0.281.12,
0.11,0.93,0.28,1.61,0.070.91,
0.12,0.94,0.28,1.54,-0.070.49,
0.12,0.94,0.28,1.19,-0.210.21,
0.12,0.94,0.28,0.84,-0.560.49,
0.12,0.93,0.28,0.63,-0.560.49,
0.12,0.93,0.28,0.42,-0.420.77,
0.12,0.93,0.28,0.56,-0.280.77,
0.12,0.93,0.28,0.56,-0.071.26,
0.12,0.93,0.28,0.63,-0.421.47,
0.12,0.93,0.27,0.77,-0.421.33,
0.12,0.93,0.28,0.77,-0.561.68,
0.12,0.94,0.28,0.91,-0.841.54,
0.12,0.93,0.27,0.84,-0.771.26,
0.12,0.93,0.28,0.63,-0.771.40,
0.12,0.93,0.27,0.63,-0.841.26,
0.12,0.93,0.27,0.49,-0.771.12,
0.11,0.93,0.27,0.56,-0.631.19,
0.12,0.94,0.27,0.56,-0.771.19,
0.12,0.94,0.27,0.56,-1.191.12,
0.12,0.94,0.27,0.63,-1.470.84,
0.12,0.94,0.27,0.63,-1.540.98,
0.12,0.93,0.28,0.49,-1.470.63,
0.12,0.93,0.28,0.49,-1.610.63,
0.13,0.93,0.28,0.63,-1.681.19,
0.12,0.93,0.28,0.7,-1.611.19,
0.13,0.93,0.28,0.91,-1.470.98,
0.12,0.94,0.28,0.77,-1.191.19,
0.12,0.94,0.28,0.91,-0.701.26,
0.12,0.94,0.28,0.77,-0.700.98,
0.12,0.94,0.28,0.77,-0.281.33,
0.13,0.94,0.28,0.7,0.000.98,
0.13,0.93,0.28,0.63,0.070.98,
0.13,0.93,0.28,0.84,-0.071.19,
0.12,0.93,0.28,0.84,0.001.19,
0.12,0.93,0.28,0.77,-0.351.47,
0.12,0.93,0.28,0.84,-0.421.40,
0.12,0.93,0.28,0.91,-0.281.47,
0.12,0.93,0.28,0.84,0.141.33,
0.12,0.94,0.28,1.05,0.421.33,
0.12,0.94,0.28,0.91,0.561.33,
0.12,0.94,0.27,0.77,0.561.19,
0.12,0.93,0.28,0.91,0.490.98,
0.12,0.93,0.28,1.05,0.490.91,
0.12,0.93,0.28,0.98,0.561.05,
0.12,0.94,0.28,0.84,0.491.26,
0.12,0.93,0.28,0.84,0.071.26,
0.12,0.93,0.28,1.05,-0.071.12,
0.12,0.93,0.27,0.98,-0.211.33,
0.11,0.93,0.27,1.05,-0.140.98,
0.11,0.93,0.27,1.12,0.000.84,
0.12,0.93,0.27,1.26,-0.141.40,
0.12,0.94,0.27,1.4,0.071.19,
0.12,0.94,0.28,1.47,0.141.05,
0.13,0.94,0.28,1.47,0.351.05,
0.13,0.94,0.28,1.33,0.840.77,
0.13,0.94,0.28,0.98,1.120.28,
0.12,0.93,0.28,1.05,1.400.42,
0.12,0.93,0.28,1.12,1.470.21,
0.12,0.93,0.28,1.12,1.26-0.07,
0.12,0.93,0.28,1.19,0.840.07,
0.12,0.93,0.28,1.33,0.420.28,
0.12,0.93,0.27,1.4,0.14-0.14,
0.12,0.93,0.27,1.26,0.000.42,
0.12,0.93,0.27,1.33,-0.280.28,
0.12,0.93,0.27,1.4,-0.700.28,
0.12,0.93,0.27,1.26,-0.840.49,
0.12,0.93,0.27,1.33,-0.630.21,
0.13,0.93,0.27,1.33,-0.420.42,
0.12,0.93,0.28,1.19,-0.630.63,
0.12,0.93,0.28,0.91,-0.910.70,
0.12,0.93,0.28,0.63,-0.980.98,
0.12,0.94,0.28,0.63,-1.190.98,
0.12,0.94,0.28,0.49,-1.261.19,
0.12,0.93,0.28,0.49,-0.981.26,
0.12,0.93,0.28,0.49,-0.771.26,
0.12,0.93,0.28,0.49,-0.770.77,
0.13,0.93,0.27,0.49,-0.700.84,
0.13,0.93,0.28,0.35,-0.770.98,
0.12,0.93,0.28,0.42,-0.840.77,
0.12,0.94,0.28,0.42,-1.050.77,
0.13,0.93,0.27,0.42,-1.330.63,
0.12,0.93,0.28,0.42,-1.260.35,
0.12,0.93,0.28,0.56,-1.260.56,
0.13,0.93,0.28,0.63,-1.330.84,
0.12,0.93,0.28,0.84,-1.330.77,
0.13,0.93,0.28,0.98,-1.120.98,
0.12,0.93,0.28,1.05,-0.771.19,
0.12,0.93,0.27,1.12,-0.490.91,
0.12,0.93,0.27,1.12,-0.350.84,
0.12,0.94,0.27,1.19,-0.211.05,
0.13,0.94,0.27,1.26,-0.141.05,
0.12,0.94,0.27,1.26,-0.071.12,
0.12,0.94,0.28,1.05,-0.141.05,
0.12,0.94,0.28,0.91,-0.141.33,
0.12,0.93,0.28,0.84,-0.351.47,
0.12,0.93,0.28,0.91,-0.560.91,
0.12,0.93,0.28,0.63,-0.280.70,
0.12,0.93,0.28,0.49,-0.420.84,
0.12,0.93,0.28,0.63,-0.630.70,
0.12,0.93,0.27,0.77,-0.700.98,
0.12,0.93,0.27,0.91,-0.490.70,
0.12,0.93,0.27,1.05,-0.421.19,
0.12,0.93,0.28,1.26,-0.281.12,
0.12,0.94,0.28,1.33,-0.141.19,
0.12,0.94,0.28,1.26,0.141.33,
0.12,0.94,0.28,1.05,0.071.26,
0.11,0.94,0.28,1.05,-0.071.19,
0.12,0.93,0.28,0.98,0.001.33,
0.11,0.93,0.27,0.91,-0.071.33,
0.11,0.94,0.28,0.7,-0.281.40,
0.11,0.93,0.27,0.7,-0.911.19,
0.11,0.94,0.27,0.7,-0.841.05,
0.11,0.93,0.28,0.98,-0.980.84,
0.11,0.93,0.28,1.12,-0.910.63,
0.11,0.93,0.28,1.05,-0.630.63,
0.11,0.93,0.28,1.05,-0.560.35,
0.12,0.93,0.28,0.98,-0.560.35,
0.12,0.93,0.28,0.77,-0.630.49,
0.12,0.93,0.27,0.84,-1.050.70,
0.12,0.93,0.28,0.7,-1.261.26,
0.12,0.93,0.28,0.84,-1.400.98,
0.12,0.94,0.28,0.91,-1.050.98,
0.12,0.94,0.28,0.98,-0.700.77,
0.12,0.93,0.28,0.91,-0.350.91,
0.12,0.93,0.28,0.84,-0.280.91,
0.12,0.93,0.28,0.84,-0.280.77,
0.12,0.93,0.28,0.7,-0.560.91,
0.13,0.93,0.27,0.84,-0.490.77,
0.13,0.93,0.28,0.98,-0.421.26,
0.13,0.93,0.27,1.19,-0.211.47,
0.13,0.93,0.27,1.26,0.001.33,
0.12,0.93,0.28,1.26,0.281.26,
0.12,0.93,0.28,1.26,0.561.12,
0.12,0.93,0.28,1.12,0.980.98,
0.12,0.94,0.28,1.12,1.051.19,
0.12,0.94,0.28,1.05,0.911.12,
0.12,0.94,0.28,1.05,0.631.33,
0.12,0.94,0.27,0.7,0.351.61,
0.12,0.93,0.28,0.84,0.141.26,
0.12,0.93,0.28,0.77,0.211.19,
0.12,0.94,0.28,0.77,0.491.12,
0.12,0.93,0.28,0.7,0.560.91,
0.12,0.94,0.27,0.98,0.630.91,
0.13,0.94,0.27,0.84,0.631.12,
0.13,0.93,0.27,0.98,0.701.05,
0.12,0.93,0.27,1.05,0.351.33,
0.12,0.93,0.28,1.19,0.141.26,
0.12,0.93,0.28,1.12,-0.070.84,
0.12,0.93,0.28,1.19,0.071.19,
0.12,0.93,0.28,1.12,0.070.84,
0.12,0.94,0.27,0.98,-0.210.77,
0.12,0.93,0.27,1.05,-0.420.70,
0.12,0.93,0.27,0.98,-0.210.70,
0.13,0.93,0.28,1.05,-0.141.40,
0.12,0.94,0.28,1.12,-0.071.19,
0.12,0.94,0.28,1.05,-0.211.40,
0.12,0.94,0.28,0.91,-0.141.19,
0.12,0.94,0.28,0.77,0.070.98,
0.13,0.93,0.28,0.77,0.071.05,
0.13,0.93,0.28,0.56,0.070.91,
0.13,0.93,0.28,0.63,0.140.63,
0.13,0.93,0.28,0.77,0.071.33,
0.12,0.93,0.28,0.98,0.281.33,
0.12,0.93,0.28,1.12,0.491.47,
0.12,0.93,0.28,0.98,0.561.68,
0.12,0.94,0.28,1.05,0.351.54,
0.12,0.94,0.28,1.05,0.211.19,
0.12,0.93,0.28,1.19,0.071.40,
0.11,0.94,0.28,1.12,0.141.19,
0.12,0.93,0.28,1.12,0.001.05,
0.12,0.93,0.28,1.05,-0.070.77,
0.12,0.93,0.28,0.98,-0.070.84,
0.12,0.93,0.28,0.77,-0.070.49,
0.12,0.93,0.28,0.63,-0.070.49,
0.12,0.93,0.28,0.7,-0.210.70,
0.12,0.93,0.28,0.98,-0.490.63,
0.12,0.93,0.28,1.19,-0.490.77,
0.12,0.93,0.28,1.4,-0.560.91,
0.12,0.93,0.28,1.61,-0.561.19,
0.12,0.93,0.28,1.61,-0.281.26,
0.12,0.93,0.28,1.33,-0.491.26,
0.12,0.94,0.28,1.19,-0.561.26,
0.11,0.94,0.28,0.91,-0.700.84,
0.11,0.94,0.28,0.63,-0.490.84,
0.11,0.94,0.28,0.7,-0.490.70,
0.11,0.94,0.28,0.63,-0.560.63,
0.11,0.93,0.28,0.63,-0.630.56,
0.12,0.93,0.28,0.77,-0.770.35,
0.12,0.93,0.28,0.91,-0.980.77,
0.12,0.93,0.28,1.05,-0.980.91,
0.12,0.93,0.28,0.91,-0.910.91,
0.12,0.94,0.28,0.91,-1.121.05,
0.12,0.94,0.28,0.84,-0.981.05,
0.12,0.94,0.28,0.77,-0.910.77,
0.12,0.94,0.28,0.84,-0.561.05,
0.12,0.93,0.28,0.98,-0.141.12,
0.12,0.93,0.28,1.12,0.071.05,
0.12,0.93,0.28,1.12,-0.071.26,
0.12,0.93,0.27,1.05,-0.211.26,
0.12,0.93,0.28,1.33,-0.420.63,
0.12,0.94,0.28,1.33,-0.560.91,
0.12,0.94,0.28,1.19,-0.630.84,
0.12,0.94,0.28,1.12,-0.700.91,
0.12,0.94,0.28,0.91,-0.631.12,
0.12,0.94,0.28,0.77,-0.841.33,
0.12,0.93,0.28,0.7,-0.911.40,
0.12,0.94,0.28,0.7,-0.561.19,
0.12,0.93,0.27,0.63,-0.421.26,
0.12,0.94,0.27,0.56,-0.071.40,
0.12,0.93,0.27,0.7,-0.141.26,
0.12,0.93,0.27,0.63,0.071.19,
0.12,0.93,0.27,0.77,0.001.47,
0.12,0.93,0.27,1.05,-0.071.54,
0.11,0.93,0.27,1.19,-0.421.26,
0.12,0.93,0.27,1.19,-0.561.68,
0.12,0.93,0.28,1.4,-0.771.26,
0.12,0.94,0.28,1.26,-0.491.19,
0.12,0.94,0.28,1.19,-0.280.84,
0.12,0.94,0.28,0.98,-0.070.77,
0.12,0.94,0.27,0.91,-0.070.98,
0.12,0.93,0.27,0.7,-0.141.05,
0.12,0.93,0.27,0.63,0.001.05,
0.12,0.93,0.27,0.7,-0.071.05,
0.12,0.93,0.28,0.7,0.001.12,
0.12,0.94,0.28,0.98,-0.281.26,
0.12,0.94,0.27,1.12,-0.140.91,
0.12,0.94,0.28,1.12,-0.210.63,
0.12,0.94,0.28,1.26,0.140.70,
0.12,0.93,0.28,1.12,0.280.84,
0.12,0.93,0.27,0.98,-0.071.05,
0.12,0.93,0.27,0.91,0.001.19,
0.12,0.93,0.27,0.91,-0.211.12,
0.12,0.93,0.27,0.98,-0.280.91,
0.12,0.94,0.28,1.19,-0.280.98,
0.12,0.94,0.28,0.98,-0.351.05,
0.12,0.94,0.27,0.91,-0.420.91,
0.12,0.93,0.28,0.7,-0.350.84,
0.12,0.93,0.28,0.63,-0.630.70,
0.12,0.93,0.28,0.7,-0.420.70,
0.12,0.94,0.27,0.63,-0.420.98,
0.13,0.94,0.28,0.7,-0.351.05,
0.13,0.93,0.28,0.84,-0.350.77,
0.12,0.93,0.27,1.05,-0.560.84,
0.12,0.93,0.28,1.19,-0.700.77,
0.12,0.93,0.27,1.33,-0.560.77,
0.12,0.93,0.28,1.33,-0.560.91,
0.12,0.94,0.28,1.19,-0.490.98,
0.12,0.94,0.28,1.05,-0.560.77,
0.12,0.94,0.27,0.7,-0.630.91,
0.12,0.94,0.27,0.7,-0.840.84,
0.12,0.93,0.27,0.56,-1.050.77,
0.12,0.93,0.27,0.7,-1.051.05,
0.12,0.93,0.28,0.91,-0.980.91,
0.12,0.93,0.27,1.19,-0.840.56,
0.12,0.93,0.28,1.19,-0.840.77,
0.12,0.93,0.27,1.26,-0.910.84,
0.12,0.93,0.27,1.19,-0.980.63,
0.12,0.93,0.28,1.26,-0.630.70,
0.12,0.93,0.28,1.19,-0.280.70,
0.12,0.93,0.27,1.12,0.070.49,
0.12,0.93,0.27,0.98,0.210.70,
0.12,0.93,0.27,0.91,0.280.56,
0.12,0.93,0.28,0.98,0.210.84,
0.12,0.93,0.28,1.12,0.141.33,
0.12,0.93,0.28,1.26,-0.281.26,
0.11,0.93,0.28,1.19,-0.421.40,
0.11,0.93,0.28,1.33,-0.491.26,
0.11,0.93,0.28,1.19,-0.421.05,
0.12,0.93,0.28,1.05,-0.350.77,
0.12,0.94,0.28,0.98,-0.350.84,
0.12,0.94,0.28,0.91,-0.350.70,
0.12,0.94,0.28,0.84,0.210.42,
0.12,0.94,0.27,1.05,0.070.77,
0.12,0.93,0.28,1.12,0.210.77,
0.12,0.93,0.28,1.33,0.350.70,
0.12,0.93,0.28,1.47,0.420.77,
0.12,0.93,0.28,1.47,0.420.63,
0.12,0.93,0.28,1.26,0.280.70,
0.12,0.93,0.27,1.33,-0.280.70,
0.11,0.93,0.27,1.33,-0.630.70,
0.11,0.93,0.28,1.19,-0.700.77,
0.11,0.93,0.27,1.05,-0.840.63,
0.11,0.94,0.28,1.05,-1.400.77,
0.11,0.94,0.27,1.19,-1.890.84,
0.12,0.94,0.28,1.05,-1.820.56,
0.12,0.94,0.28,0.98,-1.470.56,
0.12,0.94,0.28,1.12,-1.050.28,
0.12,0.94,0.28,1.12,-1.050.49,
0.12,0.94,0.28,1.05,-1.050.42,
0.12,0.93,0.27,0.98,-0.910.42,
0.13,0.93,0.27,0.77,-1.050.63,
0.12,0.93,0.27,0.91,-0.980.70,
0.12,0.93,0.27,1.05,-1.120.77,
0.12,0.93,0.27,1.26,-1.260.98,
0.11,0.93,0.27,1.54,-1.120.98,
0.12,0.93,0.27,1.61,-1.050.70,
0.12,0.93,0.27,1.61,-0.840.42,
0.12,0.94,0.27,1.61,-0.490.63,
0.12,0.94,0.27,1.4,-0.210.14,
0.12,0.94,0.27,1.33,-0.210.07,
0.12,0.94,0.27,1.12,-0.420.49,
0.12,0.94,0.27,1.12,-0.560.63,
0.12,0.94,0.27,1.12,-0.700.91,
0.12,0.94,0.27,1.12,-0.840.98,
0.12,0.94,0.27,1.26,-0.910.98,
0.12,0.93,0.28,1.19,-0.701.33,
0.12,0.93,0.28,1.19,-0.840.91,
0.12,0.93,0.28,1.05,-0.840.98,
0.11,0.93,0.28,0.98,-0.631.12,
0.12,0.93,0.28,0.91,-0.561.05,
0.12,0.93,0.27,0.98,-0.350.70,
0.12,0.94,0.28,1.05,-0.141.19,
0.12,0.94,0.27,1.19,0.000.98,
0.11,0.94,0.27,1.19,-0.141.05,
0.12,0.94,0.27,0.98,-0.071.19,
0.12,0.94,0.27,1.05,-0.141.12,
0.11,0.94,0.27,1.05,0.001.12,
0.12,0.93,0.27,0.98,0.211.33,
0.11,0.93,0.27,1.12,0.420.98,
0.11,0.93,0.27,1.12,0.350.77,
0.12,0.93,0.27,1.26,0.071.05,
0.11,0.93,0.27,1.19,-0.211.12,
0.11,0.93,0.27,1.19,-0.280.98,
0.11,0.94,0.27,1.26,-0.280.63,
0.12,0.94,0.27,1.33,-0.490.63,
0.11,0.94,0.27,1.54,-0.350.35,
0.12,0.94,0.27,1.61,-0.280.42,
0.11,0.94,0.27,1.61,-0.210.35,
0.11,0.94,0.27,1.33,-0.140.84,
0.11,0.93,0.27,1.12,-0.350.98,
0.11,0.94,0.27,1.05,-0.561.33,
0.11,0.94,0.27,0.84,-0.631.47,
0.11,0.94,0.27,0.7,-0.701.54,
0.11,0.94,0.27,0.56,-0.701.12,
0.12,0.94,0.27,0.49,-0.841.19,
0.12,0.94,0.27,0.35,-0.771.05,
0.12,0.94,0.27,0.35,-1.050.91,
0.11,0.93,0.27,0.49,-1.050.91,
0.11,0.93,0.27,0.56,-0.911.19,
0.11,0.93,0.27,0.77,-0.771.12,
0.12,0.93,0.27,0.84,-0.490.91,
0.12,0.93,0.27,0.77,-0.490.98,
0.12,0.93,0.27,0.7,-0.420.77,
0.12,0.94,0.27,0.84,-0.420.63,
0.12,0.93,0.27,0.77,-0.070.77,
0.12,0.94,0.27,0.98,-0.280.70,
0.12,0.94,0.27,0.91,-0.280.98,
0.12,0.93,0.27,0.98,-0.701.12,
0.12,0.93,0.27,1.05,-0.771.12,
0.12,0.94,0.28,1.19,-0.770.84,
0.12,0.93,0.28,1.12,-0.980.77,
0.12,0.94,0.28,0.98,-1.050.56,
0.12,0.93,0.28,1.12,-0.840.56,
0.12,0.94,0.28,0.98,-0.490.49,
0.12,0.93,0.28,0.98,-0.280.42,
0.13,0.93,0.28,1.12,-0.140.21,
0.13,0.93,0.27,1.33,-0.280.35,
0.13,0.93,0.28,1.61,0.000.35,
0.13,0.93,0.28,1.75,0.070.49,
0.13,0.93,0.27,1.68,0.000.49,
0.12,0.93,0.28,1.61,-0.211.05,
0.12,0.93,0.27,1.47,0.070.91,
0.11,0.93,0.27,1.54,0.070.84,
0.11,0.93,0.28,1.4,-0.071.12,
0.11,0.94,0.27,1.26,-0.141.05,
0.11,0.94,0.27,1.26,-0.701.05,
0.11,0.93,0.27,1.19,-0.911.05,
0.11,0.94,0.27,1.12,-0.911.19,
0.11,0.93,0.27,1.4,-0.980.70,
0.11,0.94,0.27,1.26,-0.980.70,
0.11,0.94,0.27,1.12,-1.120.49,
0.11,0.94,0.27,1.19,-1.330.35,
0.12,0.94,0.28,1.12,-1.330.42,
0.12,0.94,0.27,0.98,-1.610.28,
0.12,0.94,0.27,0.91,-1.400.14,
0.12,0.94,0.27,0.84,-1.470.35,
0.12,0.94,0.27,1.05,-1.330.49,
0.12,0.94,0.27,1.12,-1.050.63,
0.12,0.93,0.27,1.19,-0.840.84,
0.12,0.93,0.27,1.47,0.000.77,
0.12,0.93,0.27,1.54,0.280.49,
0.12,0.93,0.27,1.75,0.490.84,
0.13,0.93,0.27,1.96,0.700.56,
