aX,aY,aZ,gX,gY,gZ
0.05,0.96,0.21,-0.14,0.350.63,
0.05,0.96,0.21,-0.49,0.350.35,
0.04,0.96,0.21,-0.91,0.490.49,
0.04,0.96,0.21,-1.05,0.840.56,
0.03,0.96,0.21,-0.84,0.910.35,
0.03,0.95,0.2,-0.98,0.490.42,
0.03,0.95,0.2,-0.56,-0.210.63,
0.03,0.95,0.2,0.14,-0.700.70,
0.03,0.95,0.2,0.63,-1.120.91,
0.03,0.95,0.21,1.19,-1.330.98,
0.03,0.96,0.21,1.12,-1.330.91,
0.03,0.97,0.21,0.77,-1.470.70,
0.04,0.97,0.21,0.35,-1.050.49,
0.04,0.96,0.21,-0.21,-0.700.21,
0.05,0.96,0.21,-0.7,-0.140.63,
0.05,0.96,0.21,-1.05,-0.070.35,
0.05,0.96,0.21,-1.4,0.140.49,
0.04,0.96,0.21,-1.4,0.490.49,
0.04,0.95,0.21,-1.54,0.700.49,
0.03,0.96,0.21,-1.33,1.050.63,
0.03,0.96,0.21,-1.12,1.120.21,
0.03,0.96,0.21,-0.7,1.050.49,
0.02,0.96,0.22,-0.56,1.190.35,
0.02,0.95,0.22,-0.49,1.260.14,
0.02,0.95,0.22,-0.35,1.050.28,
0.02,0.96,0.22,-0.42,0.77-0.07,
0.03,0.96,0.21,-0.91,0.560.07,
0.03,0.95,0.21,-1.19,0.000.21,
0.03,0.95,0.22,-1.19,-0.630.28,
0.04,0.95,0.23,-0.7,-1.050.49,
0.04,0.96,0.23,-0.56,-1.120.70,
0.03,0.96,0.23,-0.77,-1.400.77,
0.03,0.97,0.23,-0.98,-0.910.84,
0.02,0.96,0.23,-1.4,-0.560.77,
0.03,0.95,0.23,-1.19,-0.280.84,
0.03,0.95,0.23,-0.56,0.000.77,
0.03,0.95,0.23,0.07,-0.281.12,
0.03,0.95,0.23,0.42,-0.700.91,
0.03,0.95,0.23,0.63,-0.700.98,
0.03,0.95,0.23,1.05,-0.841.26,
0.03,0.96,0.23,1.19,-0.701.12,
0.04,0.96,0.23,1.12,-0.630.77,
0.03,0.96,0.23,0.7,-0.350.70,
0.03,0.96,0.23,0.21,-0.140.63,
0.03,0.96,0.22,-0.56,-0.560.35,
0.03,0.97,0.22,-1.05,-1.260.35,
0.03,0.98,0.22,-1.47,-1.820.21,
0.04,0.98,0.21,-1.96,-2.17-0.49,
0.03,0.98,0.2,-2.59,-2.31-0.56,
0.04,0.97,0.2,-2.87,-2.52-1.33,
0.04,0.97,0.2,-3.22,-2.66-1.26,
0.04,0.96,0.2,-3.64,-2.45-1.40,
0.04,0.96,0.2,-3.78,-2.24-1.61,
0.04,0.95,0.21,-3.64,-1.68-1.75,
0.04,0.94,0.22,-2.87,-1.61-1.54,
0.03,0.93,0.22,-1.96,-1.33-0.98,
0.02,0.92,0.23,-0.35,-1.47-0.84,
0.01,0.92,0.24,1.19,-1.61-0.07,
0,0.92,0.26,2.24,-2.100.42,
-0.01,0.93,0.26,3.5,-2.801.12,
-0.01,0.93,0.28,4.55,-3.291.96,
0,0.93,0.29,5.67,-3.432.38,
0.01,0.94,0.3,6.58,-3.222.59,
0.02,0.95,0.3,6.65,-3.152.38,
0.02,0.96,0.29,5.95,-3.012.45,
0.04,0.96,0.29,5.46,-2.661.82,
0.05,0.96,0.3,4.69,-2.171.12,
0.05,0.95,0.29,3.71,-1.611.19,
0.05,0.95,0.27,2.87,-1.400.63,
0.05,0.95,0.26,1.82,-1.750.21,
0.05,0.96,0.25,1.54,-2.59-0.07,
0.06,0.95,0.25,1.19,-3.08-0.07,
0.06,0.95,0.25,1.19,-3.08-0.42,
0.06,0.95,0.25,1.05,-2.94-0.56,
0.05,0.95,0.24,0.84,-2.59-0.84,
0.05,0.95,0.23,0.98,-3.01-1.05,
0.04,0.95,0.23,0.91,-3.43-0.84,
0.04,0.95,0.21,0.98,-4.13-0.77,
0.04,0.95,0.2,1.19,-4.55-1.05,
0.04,0.94,0.2,1.4,-5.18-0.63,
0.04,0.94,0.19,2.24,-6.23-0.63,
0.05,0.94,0.19,3.08,-7.07-0.49,
0.05,0.93,0.18,4.27,-7.42-0.49,
0.05,0.94,0.16,4.97,-8.26-0.14,
0.05,0.94,0.15,5.95,-9.590.42,
0.05,0.93,0.16,7.21,-10.711.12,
0.05,0.93,0.16,8.61,-11.621.96,
0.05,0.93,0.17,10.15,-12.323.22,
0.05,0.94,0.17,11.83,-12.253.64,
0.05,0.94,0.18,13.58,-11.903.71,
0.06,0.95,0.19,14.91,-11.833.85,
0.06,0.95,0.2,16.1,-11.693.78,
0.06,0.95,0.22,17.01,-11.343.92,
0.06,0.95,0.23,17.29,-10.643.57,
0.05,0.95,0.25,16.87,-9.943.43,
0.04,0.96,0.25,15.75,-9.242.73,
0.04,0.97,0.24,14.7,-9.102.45,
0.03,0.97,0.24,13.86,-9.381.82,
0.03,0.98,0.23,12.32,-10.291.54,
0.03,0.99,0.23,11.13,-11.550.70,
0.03,0.99,0.23,10.08,-13.020.14,
0.04,0.99,0.23,8.96,-13.72-0.77,
0.05,0.99,0.23,7.07,-14.14-1.47,
0.05,0.99,0.22,6.09,-14.28-2.31,
0.06,0.98,0.22,5.11,-13.44-2.94,
0.07,0.97,0.22,3.78,-12.25-3.71,
0.08,0.96,0.21,2.94,-10.57-4.69,
0.08,0.95,0.2,3.08,-8.96-4.90,
0.09,0.94,0.2,3.36,-7.28-4.90,
0.08,0.94,0.19,3.29,-5.81-4.76,
0.08,0.94,0.18,3.29,-4.62-4.55,
0.07,0.94,0.16,3.43,-4.41-3.99,
0.07,0.94,0.15,3.5,-4.27-3.71,
0.07,0.94,0.14,3.85,-4.83-3.01,
0.06,0.94,0.14,3.99,-4.90-2.24,
0.05,0.95,0.14,4.62,-4.41-1.61,
0.05,0.97,0.12,4.48,-3.01-1.40,
0.05,0.98,0.1,3.57,-2.10-1.75,
0.06,0.99,0.09,3.01,-2.24-1.96,
0.05,0.99,0.1,2.24,-3.01-2.66,
0.05,0.98,0.12,0.77,-3.92-2.73,
0.02,0.98,0.12,0.91,-6.02-3.78,
-0.01,0.97,0.13,1.4,-7.21-3.71,
-0.03,0.98,0.14,1.54,-7.63-3.43,
-0.06,0.99,0.13,0.49,-8.61-3.15,
-0.05,1,0.11,-0.07,-9.73-3.99,
-0.03,1.01,0.1,-0.56,-11.83-4.90,
-0.01,1.02,0.1,-0.21,-14.00-5.25,
0,1.02,0.1,0.63,-15.54-6.02,
0,1.02,0.1,0.49,-16.45-5.74,
0.01,1.01,0.12,0.21,-16.38-5.18,
0.01,0.98,0.14,-0.91,-15.61-3.08,
0,0.97,0.17,-2.59,-13.02-1.05,
0,0.97,0.19,-5.53,-7.280.00,
0.01,0.97,0.19,-8.82,-2.730.56,
0.02,0.97,0.18,-10.78,2.101.33,
0.04,0.98,0.17,-11.83,6.721.33,
0.05,1,0.15,-12.39,11.200.77,
0.07,1.01,0.12,-11.13,17.080.21,
0.07,1.01,0.1,-9.31,21.70-0.14,
0.05,1,0.09,-7.21,24.08-0.42,
0.03,1,0.08,-7.28,25.20-0.28,
0.02,1,0.07,-8.4,24.99-0.14,
0.01,1,0.07,-9.59,23.450.77,
-0.01,1.01,0.08,-10.5,22.121.68,
-0.03,1,0.08,-12.88,21.003.36,
-0.07,0.97,0.07,-14.84,18.274.69,
-0.1,0.94,0.07,-15.4,15.757.28,
-0.12,0.94,0.07,-15.61,13.729.03,
-0.12,0.94,0.04,-16.24,12.5310.43,
-0.11,0.93,0.03,-15.68,11.4111.41,
-0.07,0.94,0.02,-13.79,12.1111.90,
0.11,0.98,0.01,-11.2,14.7711.06,
0.07,1.01,0,-7.84,16.3811.62,
0.11,1.02,0.04,-4.62,18.6212.74,
0.12,1,0.08,-2.52,22.1914.70,
0.1,0.99,0.11,0.14,25.7617.57,
0.07,0.98,0.11,0.14,28.4920.37,
0.04,0.98,0.13,-2.59,29.1222.75,
0.02,1,0.12,-5.67,26.6025.83,
0.01,1.01,0.11,-7,21.6327.93,
0.03,1.05,0.11,-10.92,17.5728.28,
0.08,1.06,0.12,-12.18,16.7326.32,
0.15,1.06,0.16,-9.1,18.9723.45,
0.23,1.06,0.22,-4.9,23.5220.02,
0.28,1.05,0.26,-0.42,31.2917.08,
0.27,1.04,0.29,-0.35,36.4716.52,
0.22,1.02,0.34,-5.95,39.5520.44,
0.05,1.02,0.36,-13.79,39.4125.97,
-0.14,1,0.39,-21.84,35.7031.01,
-0.27,0.94,0.37,-30.87,29.8936.54,
-0.32,0.81,0.32,-33.95,24.5739.55,
-0.24,0.74,0.23,-26.88,15.8939.55,
-0.07,0.72,0.17,-14.63,7.6337.87,
0.15,0.74,0.15,4.34,1.1235.91,
0.34,0.81,0.13,15.54,-3.2234.86,
0.5,0.89,0.17,22.4,-5.3936.40,
0.56,1.03,0.26,26.46,-6.6542.00,
0.5,1.13,0.4,25.34,-3.5747.25,
0.35,1.17,0.51,15.68,1.3351.80,
0.2,1.16,0.6,-7.42,11.6253.90,
0.07,1.07,0.55,-12.88,18.5554.39,
0.02,1.01,0.47,-5.18,25.1352.29,
0.02,0.99,0.38,4.48,28.2847.11,
0.08,0.92,0.31,17.01,27.1642.21,
0.17,0.9,0.27,30.1,18.9039.34,
0.2,0.92,0.27,30.87,14.1438.71,
0.18,0.94,0.26,22.61,8.1239.62,
0.12,0.94,0.29,16.94,1.1940.53,
0.1,0.97,0.32,5.67,-11.3441.65,
0.08,0.98,0.36,-11.34,-20.0944.66,
0.11,0.9,0.28,-18.41,-21.4945.92,
0.17,0.81,0.15,-11.06,-24.7846.34,
0.18,0.74,0.1,3.99,-27.8647.04,
0.16,0.66,0.15,13.3,-26.4648.51,
0.15,0.6,0.17,16.45,-23.4550.40,
0.19,0.58,0.21,12.95,-20.1653.06,
0.23,0.59,0.22,10.99,-13.7250.89,
0.29,0.69,0.24,11.9,-4.3446.69,
0.33,0.8,0.26,9.17,0.9142.56,
0.36,0.88,0.26,11.55,7.2138.36,
0.36,0.9,0.21,17.36,10.7136.47,
0.36,0.89,0.21,14.91,10.6438.78,
0.37,0.83,0.22,9.17,10.6441.93,
0.35,0.74,0.23,5.25,13.3743.19,
0.24,0.69,0.26,-0.28,20.7944.73,
0.19,0.68,0.23,-7.91,29.9641.44,
0.18,0.69,0.21,-7.49,35.6336.68,
0.14,0.75,0.18,-4.34,33.1131.36,
0.11,0.88,0.23,-5.53,26.3224.92,
0.08,1.01,0.29,-8.4,22.4718.97,
0.12,0.99,0.23,-11.06,19.6714.77,
0.25,0.86,0.17,-10.64,16.8714.56,
0.39,0.75,0.17,-5.67,14.1417.92,
0.45,0.72,0.14,-1.26,10.1522.54,
0.43,0.77,0.13,0.35,4.4128.56,
0.4,0.91,0.14,-2.45,-1.4735.70,
0.35,1.03,0.18,-5.6,-4.6937.38,
0.3,1.12,0.21,-8.82,-5.3236.96,
0.34,1.15,0.23,-12.88,-3.7835.14,
0.39,1.11,0.28,-12.67,-1.4032.27,
0.38,1.09,0.29,-12.04,0.1429.96,
0.32,1.08,0.31,-13.3,0.0726.18,
0.29,1.04,0.3,-16.31,1.1223.31,
0.34,1.01,0.31,-16.8,-1.6820.58,
0.4,1.01,0.34,-17.01,-3.9917.64,
0.42,0.97,0.33,-14.7,-4.2015.61,
0.4,0.95,0.3,-11.97,-4.3414.00,
0.39,0.93,0.29,-9.87,-4.5512.88,
0.39,0.92,0.31,-9.8,-3.8512.39,
0.41,0.93,0.27,-11.06,-1.1911.27,
0.41,0.96,0.2,-14.14,-4.7612.25,
0.45,0.97,0.22,-18.62,-7.5613.23,
0.48,0.96,0.26,-20.72,-9.1015.05,
0.5,0.92,0.31,-20.79,-8.7516.59,
0.49,0.89,0.36,-18.69,-4.6915.68,
0.48,0.83,0.37,-16.87,0.2113.37,
0.44,0.77,0.35,-12.81,7.2811.55,
0.41,0.74,0.32,-8.12,10.859.59,
0.38,0.72,0.31,-4.41,11.698.47,
0.34,0.74,0.29,-3.43,10.997.70,
0.33,0.77,0.27,-3.01,10.714.97,
0.35,0.82,0.26,-2.52,9.381.26,
0.38,0.87,0.27,-1.19,6.16-0.63,
0.41,0.92,0.29,-3.64,3.64-1.54,
0.44,0.92,0.32,-3.29,2.45-2.66,
0.45,0.96,0.34,-3.43,3.08-2.94,
0.47,0.97,0.37,-3.01,6.23-2.94,
0.48,0.97,0.35,-1.61,11.06-3.50,
0.49,0.95,0.33,-1.47,15.89-5.18,
0.47,0.9,0.3,-0.49,20.93-6.86,
0.43,0.87,0.29,0.21,23.38-8.68,
0.4,0.85,0.28,-0.14,25.41-9.87,
0.4,0.84,0.27,1.33,27.44-11.34,
0.41,0.84,0.27,3.01,28.98-12.53,
0.42,0.84,0.29,3.29,30.38-13.72,
0.41,0.84,0.29,4.2,31.29-14.42,
0.39,0.86,0.31,5.39,33.11-15.12,
0.37,0.89,0.31,5.04,33.81-15.61,
0.36,0.91,0.33,4.34,34.44-17.22,
0.35,0.92,0.33,4.9,36.82-19.11,
0.35,0.9,0.33,6.72,37.17-20.51,
0.35,0.91,0.36,6.3,36.33-21.28,
0.34,0.91,0.37,6.86,39.06-22.12,
0.31,0.91,0.36,9.59,42.07-22.61,
0.31,0.92,0.35,10.36,43.12-23.10,
0.31,0.93,0.33,10.99,44.10-23.94,
0.31,0.93,0.32,11.83,44.73-25.27,
0.32,0.92,0.32,13.16,45.08-25.62,
0.32,0.91,0.34,13.65,45.08-26.18,
0.28,0.9,0.36,13.37,45.08-26.11,
0.26,0.89,0.34,13.51,45.08-24.99,
0.24,0.88,0.33,14.63,44.38-24.78,
0.21,0.87,0.34,14.77,43.05-23.80,
0.2,0.87,0.36,13.58,41.16-22.96,
0.2,0.85,0.37,10.57,38.71-22.40,
0.2,0.83,0.38,9.38,36.47-21.91,
0.18,0.82,0.39,10.85,38.36-22.12,
0.18,0.82,0.38,17.92,43.12-23.10,
0.19,0.84,0.37,20.09,47.60-23.38,
0.19,0.85,0.35,17.08,48.30-21.77,
0.19,0.87,0.34,14.21,47.53-19.46,
0.2,0.88,0.35,14.56,47.46-18.69,
0.23,0.87,0.38,17.92,51.87-17.71,
0.26,0.91,0.39,16.31,56.63-17.36,
0.29,0.89,0.39,15.05,61.11-16.52,
0.3,0.9,0.38,14.56,61.81-16.59,
0.29,0.92,0.39,12.95,61.39-17.08,
0.26,0.87,0.43,14.14,63.98-18.83,
0.22,0.82,0.41,17.78,72.66-17.78,
0.17,0.8,0.34,19.18,76.86-15.89,
0.16,0.8,0.32,16.38,78.19-13.51,
0.15,0.78,0.32,14.49,77.70-10.92,
0.14,0.77,0.33,14.28,78.82-9.10,
0.14,0.79,0.34,16.87,80.99-7.70,
0.14,0.82,0.36,20.79,82.25-7.07,
0.15,0.86,0.36,21,80.50-6.72,
0.16,0.89,0.36,19.39,78.89-6.44,
0.16,0.9,0.38,17.57,77.91-7.14,
0.15,0.88,0.4,17.78,80.01-8.61,
0.18,0.84,0.37,21.42,84.00-9.03,
0.22,0.81,0.34,24.22,87.78-6.72,
0.27,0.79,0.35,26.6,93.24-3.22,
0.3,0.81,0.36,27.51,95.690.42,
0.3,0.83,0.37,27.93,97.513.50,
0.27,0.85,0.37,29.26,99.335.46,
0.23,0.87,0.37,31.85,100.736.65,
0.17,0.89,0.37,33.95,103.187.56,
0.13,0.91,0.37,35.35,103.887.07,
0.11,0.9,0.36,35.07,102.416.86,
0.09,0.89,0.35,33.95,98.776.23,
0.09,0.88,0.35,33.46,95.622.94,
0.1,0.85,0.38,36.12,93.451.75,
0.13,0.89,0.42,35.49,93.800.35,
0.13,0.87,0.42,33.18,96.111.61,
0.11,0.88,0.4,31.36,97.092.59,
0.1,0.87,0.37,30.45,94.084.55,
0.09,0.88,0.36,31.85,87.227.14,
0.1,0.93,0.38,31.85,79.808.68,
0.11,0.95,0.38,29.89,75.048.61,
0.13,0.94,0.37,26.6,73.158.33,
0.14,0.9,0.35,28.14,71.617.70,
0.15,0.91,0.36,29.89,72.526.16,
0.16,0.91,0.38,32.27,75.183.78,
0.14,0.94,0.37,36.12,78.54-0.07,
0.12,0.98,0.34,36.19,81.06-2.87,
0.1,0.98,0.33,36.26,82.53-5.11,
0.1,1.01,0.3,18.06,84.70-7.07,
0.09,1.04,0.25,31.92,85.54-8.40,
0.09,1.02,0.21,30.24,84.35-8.05,
0.09,1,0.19,29.4,82.04-8.05,
0.1,0.96,0.2,28.56,79.73-7.00,
0.13,0.94,0.21,25.76,78.26-5.53,
0.15,0.92,0.23,22.33,77.42-3.71,
0.16,0.91,0.24,19.88,79.10-3.71,
0.15,0.91,0.22,17.08,83.09-4.27,
0.11,0.91,0.15,14.63,86.73-5.46,
0.06,0.91,0.07,13.65,87.99-7.00,
0.03,0.92,0.01,13.02,85.47-7.56,
-0.01,0.94,-0.02,14.21,79.24-7.98,
-0.04,0.98,-0.02,17.01,74.62-8.75,
-0.06,1.02,-0.01,18.48,70.21-9.03,
-0.04,1.01,0.07,17.99,68.46-8.68,
-0.03,1.02,0.1,16.52,70.35-8.19,
-0.02,1,0.13,14.42,72.52-7.35,
-0.02,0.99,0.13,12.11,79.38-7.00,
-0.05,0.98,0.1,10.5,84.07-5.81,
-0.09,0.98,0.04,10.5,85.19-4.76,
-0.09,1,0.02,12.6,84.77-4.83,
-0.06,1.02,0,15.89,84.42-5.04,
-0.04,1.01,0.01,19.32,85.19-7.00,
-0.01,0.94,0.05,23.03,86.38-6.09,
-0.01,0.92,0.06,25.27,86.87-3.36,
0.03,0.93,0.09,20.93,87.85-0.35,
0.06,0.9,0.1,20.3,91.283.64,
0.06,0.94,0.12,18.41,96.816.58,
0.05,0.97,0.12,15.19,102.138.47,
0.03,1,0.1,12.67,108.298.68,
0,0.98,0.06,11.69,112.079.03,
-0.08,0.99,0.03,12.18,111.169.45,
-0.13,0.98,0.02,12.67,108.508.40,
-0.17,0.96,0.03,12.88,104.238.19,
-0.19,0.97,0.05,13.65,98.287.70,
-0.2,0.95,0.06,14.42,93.177.07,
-0.19,0.95,0.06,15.33,88.906.44,
-0.15,0.96,0.08,15.96,84.845.74,
-0.11,0.96,0.1,15.61,84.355.18,
-0.1,0.96,0.08,15.75,82.046.44,
-0.09,0.97,0.08,15.75,80.857.77,
-0.08,0.98,0.07,14.84,80.089.24,
-0.09,0.98,0.06,14,79.2410.99,
-0.1,0.98,0.04,10.92,76.3712.95,
-0.12,0.95,0.07,11.2,72.5914.07,
-0.13,0.93,0.08,11.13,71.8216.10,
-0.14,0.94,0.09,12.18,72.8716.80,
-0.13,0.96,0.09,14.49,75.5316.45,
-0.11,0.96,0.1,17.22,79.8015.33,
-0.1,0.98,0.12,19.6,84.6313.79,
-0.1,1,0.13,20.09,91.0013.30,
-0.12,1.02,0.13,19.11,94.1513.72,
-0.14,1.05,0.12,16.73,95.2714.56,
-0.14,1.08,0.13,15.26,94.7816.17,
-0.14,1.09,0.15,11.27,94.4316.87,
-0.15,1.06,0.15,5.95,93.3817.92,
-0.14,1.05,0.14,0.42,92.4717.92,
-0.15,1.04,0.17,-4.13,92.6816.94,
-0.14,1.08,0.17,-9.38,94.6415.05,
-0.13,1.12,0.16,-14.42,95.0613.30,
-0.11,1.19,0.16,-22.61,94.5010.29,
-0.1,1.26,0.13,-31.99,92.756.16,
-0.08,1.36,0.11,-44.31,87.29-0.98,
-0.02,1.4,0.1,-58.1,80.22-6.58,
0,1.37,0.16,-72.1,73.92-10.71,
-0.03,1.31,0.21,-89.04,68.81-12.25,
-0.04,1.22,0.23,-101.5,68.32-13.02,
-0.04,1.13,0.12,-114.45,64.61-11.97,
-0.04,1,0.11,-126.77,57.47-9.31,
-0.06,0.91,0.09,-132.58,50.68-5.18,
-0.11,0.82,0.06,-125.37,37.032.03,
-0.08,0.89,0.11,-126.56,24.437.42,
0.04,0.9,0.13,-121.1,10.5015.54,
0.08,0.97,0.1,-116.55,4.0618.48,
0.08,0.99,0.15,-101.22,1.2619.67,
0.06,1.05,0.25,-94.92,4.2718.62,
-0.11,0.99,0.27,-88.48,9.7315.75,
-0.02,0.92,0.3,-77.91,12.8112.67,
0,0.92,0.38,-68.32,16.9410.08,
0.04,0.88,0.39,-62.79,24.369.10,
0.05,0.89,0.3,-61.11,27.797.77,
0.05,0.82,0.27,-54.74,27.028.54,
0.07,0.71,0.29,-46.55,23.1713.30,
0.05,0.73,0.29,-40.81,18.2017.43,
0.04,0.72,0.3,-37.66,17.7120.37,
0.03,0.71,0.27,-33.32,18.4121.42,
0.02,0.72,0.24,-29.61,16.7321.35,
0,0.68,0.25,-22.89,15.1221.28,
-0.02,0.67,0.26,-15.61,12.3922.40,
-0.02,0.67,0.3,-9.73,8.0523.52,
0,0.68,0.33,-3.99,5.6024.85,
0.04,0.69,0.36,3.08,5.8825.76,
0.08,0.7,0.38,8.68,9.1026.53,
0.13,0.71,0.41,12.95,14.0727.09,
0.15,0.72,0.42,16.38,20.0927.93,
0.17,0.74,0.44,17.92,26.8827.65,
0.15,0.74,0.46,18.55,34.9327.16,
0.12,0.71,0.49,21,42.4226.60,
0.08,0.68,0.47,24.57,49.1425.55,
0.04,0.69,0.44,24.78,52.5024.43,
0,0.71,0.45,22.89,52.2223.17,
-0.04,0.73,0.47,22.19,48.5821.35,
-0.06,0.74,0.49,23.1,43.0521.07,
-0.08,0.77,0.52,26.6,39.4820.58,
-0.06,0.79,0.55,32.2,36.9620.79,
-0.07,0.81,0.54,34.16,35.0021.07,
-0.08,0.83,0.55,32.27,32.1320.72,
-0.1,0.86,0.59,27.58,29.2614.28,
-0.11,0.84,0.64,23.24,28.777.14,
-0.07,0.84,0.66,21.91,34.79-0.42,
-0.05,0.9,0.65,21.14,42.56-6.86,
-0.06,1.01,0.61,21.07,48.58-14.49,
-0.08,1.05,0.62,19.95,48.86-21.91,
-0.1,1.03,0.68,21.63,43.54-25.76,
-0.17,1.02,0.79,16.87,33.81-27.23,
-0.21,1.02,0.86,4.34,27.72-28.42,
-0.19,1.05,0.79,-7.21,30.80-30.03,
-0.07,1.15,0.59,-5.18,39.90-30.24,
0.15,1.24,0.38,5.74,44.87-26.60,
0.39,1.31,0.21,20.44,44.24-20.02,
0.54,1.35,0.12,31.22,40.32-9.03,
0.48,1.36,0.05,27.51,32.69-0.77,
0.33,1.19,0.1,9.8,20.795.25,
0.21,0.98,0.23,-10.78,10.298.26,
0.07,0.91,0.36,-36.05,5.747.91,
-0.03,0.87,0.42,-51.31,19.603.50,
-0.04,0.75,0.35,-49.28,53.06-4.83,
-0.02,0.61,0.18,-32.97,89.88-11.76,
-0.01,0.59,-0.05,-9.03,118.02-12.88,
-0.04,0.73,-0.26,18.62,129.50-10.29,
-0.05,0.94,-0.37,43.47,118.79-7.63,
-0.07,1.09,-0.3,49.21,97.93-5.18,
-0.09,1.04,-0.04,52.57,79.03-2.31,
-0.12,1.03,0.18,56.56,64.961.19,
-0.13,1.01,0.32,55.23,60.341.40,
-0.19,1,0.32,55.02,60.200.49,
-0.18,0.95,0.33,52.22,66.15-1.61,
-0.15,0.84,0.27,51.45,70.70-1.19,
-0.05,0.77,0.21,46.2,72.526.23,
0.06,0.78,0.12,41.93,71.8917.50,
0.11,0.88,0.06,34.86,70.7727.58,
0.06,0.94,-0.02,41.86,65.3831.15,
-0.03,1.04,-0.01,45.71,60.8330.24,
-0.1,1.06,0.03,46.97,58.8026.81,
-0.15,0.99,0.08,49.35,58.5223.03,
-0.19,0.92,0.1,51.87,57.1220.93,
-0.19,0.89,0.11,52.01,53.4819.46,
-0.16,0.9,0.09,46.9,48.5120.51,
-0.12,0.88,0.1,46.55,41.9322.61,
-0.08,0.9,0.12,46.62,38.2924.08,
-0.08,0.92,0.14,45.43,39.3425.13,
-0.07,0.94,0.14,45.36,44.3125.34,
-0.05,0.94,0.1,45.92,48.5826.39,
-0.03,0.95,0.09,46.55,50.3328.56,
-0.02,0.98,0.12,45.78,50.3331.01,
-0.02,0.96,0.14,43.26,52.8533.81,
-0.04,0.95,0.16,40.6,54.5335.56,
-0.05,0.92,0.16,38.29,54.1838.08,
-0.1,0.91,0.14,37.94,54.0438.85,
-0.16,0.93,0.12,37.17,54.6738.64,
-0.18,0.97,0.1,36.68,55.7936.82,
-0.17,0.99,0.09,35.77,57.1933.39,
-0.15,1.01,0.11,36.33,58.8729.96,
-0.09,1.03,0.13,36.89,61.6726.11,
-0.1,1.06,0.11,34.58,62.8622.82,
-0.12,1.08,0.16,29.12,64.4720.09,
-0.13,1.06,0.2,22.4,65.5916.87,
-0.16,1.07,0.2,15.68,64.4014.98,
-0.19,1.09,0.18,5.25,62.9314.35,
-0.24,1.08,0.13,-2.45,59.2214.07,
-0.26,1.09,0.14,-11.48,53.8313.37,
-0.25,1.08,0.17,-19.6,49.7713.02,
-0.21,1.08,0.14,-27.79,47.3211.62,
-0.17,1.08,0.12,-36.4,43.8210.92,
-0.18,1.15,0.07,-46.97,35.708.75,
-0.17,1.26,0.07,-55.79,23.314.20,
-0.07,1.38,0.21,-69.3,14.63-1.68,
0.02,1.43,0.3,-84.35,16.10-9.73,
0.14,1.38,0.25,-101.43,23.31-18.76,
0.19,1.24,0.25,-111.65,28.63-25.55,
0.1,1.08,0.2,-115.92,31.71-29.82,
-0.05,1.07,0.09,-118.23,33.53-31.92,
-0.14,1.08,-0.07,-116.13,33.39-33.32,
-0.22,1.1,-0.13,-104.86,24.15-34.30,
-0.26,1.12,-0.01,-92.96,7.91-33.32,
-0.26,1.16,0.13,-83.65,-7.56-31.85,
-0.19,1.21,0.22,-79.73,-16.87-31.36,
-0.06,1.18,0.29,-79.38,-21.07-29.68,
0.1,1.09,0.32,-83.23,-21.21-27.58,
0.22,0.99,0.34,-84.98,-16.45-24.99,
0.3,0.96,0.35,-85.96,-10.22-20.09,
0.32,0.99,0.32,-87.64,-3.15-12.18,
0.3,1.03,0.25,-89.53,1.82-4.83,
0.3,1,0.23,-91.63,5.462.03,
0.26,0.92,0.19,-89.95,8.756.02,
0.22,0.88,0.2,-85.33,14.079.94,
0.14,0.77,0.2,-78.61,18.9013.86,
0.14,0.82,0.21,-71.54,23.1712.53,
0.12,0.8,0.18,-66.78,25.8311.48,
0.09,0.72,0.17,-59.29,31.715.46,
0,0.65,0.14,-42.28,31.922.31,
0,0.63,0.16,-34.09,27.790.07,
-0.04,0.61,0.17,-25.9,19.25-1.54,
-0.05,0.6,0.2,-19.6,10.64-1.96,
-0.06,0.6,0.23,-15.47,1.260.21,
-0.07,0.58,0.25,-9.03,-5.533.01,
-0.05,0.59,0.26,-2.59,-10.646.02,
-0.02,0.62,0.29,2.87,-12.189.10,
0,0.65,0.31,8.19,-9.8010.85,
0,0.67,0.34,16.31,-4.6211.34,
0.01,0.68,0.37,25.13,1.4011.06,
-0.01,0.68,0.37,33.67,5.6010.50,
-0.04,0.67,0.38,41.44,8.269.73,
-0.05,0.65,0.39,47.6,9.0310.36,
-0.06,0.65,0.4,51.31,7.9110.64,
-0.07,0.69,0.43,51.73,5.3211.27,
-0.05,0.75,0.47,49.35,3.4310.64,
-0.05,0.85,0.51,45.92,2.179.03,
-0.05,0.91,0.52,44.03,2.035.32,
-0.11,0.96,0.56,44.45,2.171.96,
-0.21,1.02,0.58,46.48,1.96-0.49,
-0.25,1.1,0.57,42.63,1.40-4.76,
-0.24,1.19,0.55,30.52,-0.84-10.43,
-0.19,1.23,0.57,17.15,-4.13-17.01,
-0.13,1.19,0.6,7.63,-4.83-22.82,
-0.13,1.08,0.63,4.97,-3.50-29.40,
-0.2,1,0.7,4.06,-5.18-32.62,
-0.3,0.94,0.76,-0.98,-9.87-34.16,
-0.35,0.89,0.8,-12.95,-13.65-34.65,
-0.34,0.9,0.72,-18.34,-14.63-33.95,
-0.21,0.98,0.5,-14.91,-12.04-30.03,
-0.02,1.1,0.22,2.17,-10.01-20.79,
0.19,1.21,0.06,23.17,-11.06-15.75,
0.43,1.23,0.06,33.39,-4.55-11.41,
0.48,1.24,0.06,34.79,2.94-4.34,
0.44,1.13,0,37.1,3.01-1.54,
0.38,0.99,0.18,30.31,-8.473.99,
0.31,0.97,0.42,4.48,-18.419.24,
0.2,0.89,0.52,-18.69,-13.378.40,
0.09,0.82,0.4,-24.08,5.325.32,
0.05,0.81,0.26,-22.19,35.703.15,
0.08,0.81,0.21,-9.73,62.862.24,
0.05,0.85,0.04,10.71,88.761.40,
-0.01,0.98,-0.22,33.6,104.090.56,
-0.07,1.04,-0.27,45.15,98.0717.85,
-0.1,1.04,-0.17,47.25,79.240.84,
-0.18,0.96,0.04,48.51,60.270.91,
-0.25,0.88,0.19,55.58,55.510.21,
-0.25,0.92,0.26,57.33,53.480.63,
-0.22,0.99,0.28,51.17,54.88-1.12,
-0.18,0.95,0.26,47.74,56.56-1.68,
-0.1,0.87,0.26,42.42,55.868.05,
-0.02,0.85,0.23,37.59,58.0314.84,
0.04,0.8,0.18,40.46,61.9519.95,
0.01,0.78,0.11,44.1,64.1224.08,
-0.06,0.83,0.03,48.16,62.1627.30,
-0.16,0.92,-0.03,48.58,56.7727.72,
-0.22,0.97,0.02,47.46,49.9126.74,
-0.25,0.91,0.08,49.56,43.1925.83,
-0.24,0.87,0.13,53.48,37.0325.13,
-0.2,0.89,0.16,52.36,34.3023.66,
-0.19,0.87,0.16,50.68,33.0423.38,
-0.17,0.88,0.12,49.07,32.8323.94,
-0.16,0.92,0.12,46.06,33.6724.50,
-0.15,0.92,0.11,45.71,35.4224.99,
-0.09,0.93,0.12,45.92,39.5525.48,
-0.09,0.95,0.11,41.37,39.4826.46,
-0.11,0.94,0.09,35.21,37.3827.44,
-0.13,0.92,0.08,33.25,33.8827.44,
-0.14,0.92,0.11,28.14,32.6227.44,
-0.12,0.89,0.17,24.78,35.2827.16,
-0.11,0.89,0.21,23.59,37.4527.09,
-0.1,0.91,0.19,21.98,42.9825.76,
-0.1,0.91,0.17,22.89,44.5225.55,
-0.1,0.92,0.15,26.11,45.5025.76,
-0.11,0.95,0.17,28.63,48.5824.22,
-0.15,1,0.17,27.86,51.6622.26,
-0.17,1,0.16,28.28,52.8520.23,
-0.16,1.04,0.14,26.88,53.3417.85,
-0.16,1.04,0.1,23.73,52.5018.13,
-0.2,1.08,0.07,0,48.3717.36,
-0.25,1.12,0.08,10.15,40.9515.82,
-0.27,1.15,0.12,5.81,33.7414.14,
-0.25,1.16,0.21,1.19,30.6612.53,
-0.22,1.12,0.27,-4.34,30.8010.92,
-0.22,1.09,0.29,-13.44,31.2210.36,
-0.23,1.08,0.29,-23.31,31.2910.64,
-0.23,1.09,0.27,-35.42,31.5011.55,
-0.25,1.18,0.17,-43.96,29.1910.57,
-0.24,1.3,0.13,-51.24,22.617.07,
-0.18,1.41,0.2,-62.44,18.55-2.10,
-0.11,1.39,0.21,-79.1,21.70-12.60,
-0.01,1.34,0.25,-97.09,24.29-23.24,
0.07,1.3,0.27,-114.94,20.02-30.17,
0.1,1.21,0.32,-138.25,9.80-31.57,
0.1,1.09,0.37,-142.59,3.08-33.88,
0.07,1.04,0.1,-132.93,0.63-37.94,
-0.04,0.92,-0.12,-118.93,-0.84-35.70,
-0.16,0.96,-0.04,-107.87,-5.67-30.66,
-0.35,1,0.18,-95.62,-11.76-28.63,
-0.42,1.18,0.43,-93.8,-15.26-30.73,
-0.43,1.19,0.46,-89.46,-23.38-31.71,
-0.32,1.25,0.46,-84.35,-25.90-34.93,
-0.1,1.19,0.46,-81.55,-19.67-34.58,
0.14,1.11,0.45,-85.19,-10.01-31.43,
0.22,1,0.35,-81.27,-7.35-27.16,
0.3,0.96,0.35,-76.44,-2.80-20.09,
0.34,0.91,0.29,-80.29,3.36-14.49,
0.28,0.79,0.2,-80.01,5.46-9.17,
0.24,0.69,0.16,-79.38,4.83-3.01,
0.11,0.63,0.18,-63.91,0.146.30,
0.16,0.74,0.29,-82.6,2.039.59,
-0.05,0.58,0.17,-56.7,0.2110.85,
-0.03,0.7,0.25,-42.14,1.757.63,
-0.08,0.72,0.25,-33.81,0.493.78,
-0.1,0.71,0.22,-24.22,-1.26-1.54,
-0.08,0.68,0.24,-15.4,-3.50-3.08,
-0.05,0.64,0.25,-12.39,-7.07-1.89,
-0.03,0.56,0.26,-8.19,-10.851.75,
-0.02,0.55,0.26,-2.45,-13.444.62,
0.01,0.53,0.29,5.67,-13.447.70,
0.02,0.54,0.32,13.93,-11.8310.99,
0.02,0.55,0.35,22.26,-10.2914.21,
0.02,0.57,0.36,30.31,-7.7717.15,
-0.01,0.56,0.37,35.56,-5.6019.60,
-0.03,0.52,0.37,45.85,-1.5422.33,
-0.07,0.51,0.37,56.42,0.6326.11,
-0.1,0.51,0.39,63.49,0.8429.40,
-0.13,0.51,0.42,69.79,0.7731.99,
-0.16,0.56,0.46,72.03,2.9435.49,
-0.2,0.71,0.5,63.42,0.5638.85,
-0.22,0.89,0.53,51.1,-4.9734.58,
-0.19,1.07,0.58,44.03,-8.0523.80,
-0.16,1.2,0.65,33.81,-7.9114.28,
-0.15,1.39,0.85,21.42,-2.736.23,
-0.11,1.57,0.77,1.12,6.72-4.06,
-0.09,1.49,0.72,-11.48,13.58-18.62,
-0.13,1.29,0.75,-12.39,4.41-22.75,
-0.33,1.07,0.82,-13.09,-19.11-27.44,
-0.43,0.81,0.84,-19.46,-30.24-31.15,
-0.41,0.63,0.76,-30.8,-29.54-32.97,
-0.25,0.54,0.59,-37.17,-14.07-34.72,
-0.02,0.56,0.4,-26.74,9.45-37.10,
0.25,0.59,0.14,17.99,26.11-35.28,
0.44,0.74,0.03,60.34,26.32-29.75,
0.61,0.89,0.14,81.9,22.19-20.58,
0.59,1.11,0.2,98.28,14.77-8.12,
0.41,1.5,0.08,90.37,5.044.48,
0.22,1.81,0.04,55.93,-3.7112.25,
0.09,1.89,0.4,6.37,0.7710.29,
-0.05,1.8,0.66,-40.04,32.76-4.48,
-0.09,1.3,0.39,-51.45,51.03-20.09,
0.12,0.77,0.15,-30.73,68.18-21.49,
0.38,0.43,0.22,-23.17,72.24-13.51,
0.31,0.37,0.15,-6.16,93.66-5.39,
0.14,0.41,0.07,27.51,132.93-2.24,
-0.06,0.61,-0.26,62.51,156.871.33,
-0.28,0.95,-0.48,80.15,139.375.18,
-0.32,1.09,-0.44,84.77,105.4912.67,
-0.36,1.17,-0.21,85.26,70.2114.35,
-0.35,1.19,0.02,83.16,49.5617.29,
-0.29,1.21,0.2,77.91,48.0915.26,
-0.12,1.04,0.2,74.2,52.9221.42,
0.13,0.85,0.25,64.12,59.4332.69,
0.26,0.76,0.21,62.37,70.2141.02,
0.23,0.73,0.14,62.79,80.8546.20,
0.17,0.73,0,67.62,86.0351.17,
0.13,0.82,-0.09,60.69,90.4454.04,
0.08,0.88,-0.12,56.7,90.3054.32,
0,0.89,-0.09,56.77,89.6752.08,
-0.04,0.92,-0.01,56,91.5649.63,
-0.15,0.98,0.02,55.16,91.2845.36,
-0.19,1.02,0.04,50.82,89.7441.44,
-0.22,1.03,0.07,44.94,87.0138.29,
-0.22,0.98,0.08,39.2,84.2137.38,
-0.22,0.91,0.11,36.89,83.1636.54,
-0.24,0.88,0.14,37.17,83.0936.40,
-0.28,0.89,0.16,36.96,80.7836.54,
-0.32,0.88,0.14,37.59,77.8437.17,
-0.29,0.87,0.12,38.78,72.8737.24,
-0.29,0.84,0.1,40.39,67.2737.52,
-0.27,0.82,0.1,44.24,63.2137.94,
-0.26,0.84,0.11,46.34,59.7838.99,
-0.24,0.9,0.14,48.72,55.3739.41,
-0.24,0.96,0.14,48.09,52.5739.20,
-0.24,1.04,0.11,43.89,50.4738.99,
-0.25,1.09,0.07,37.94,48.5836.61,
-0.19,1.12,0.08,32.69,48.7232.83,
-0.15,1.13,0.11,28.21,47.6028.35,
-0.17,1.19,0.18,20.51,43.7523.17,
-0.25,1.22,0.16,9.31,37.8016.94,
-0.27,1.19,0.12,-2.1,33.8111.90,
-0.26,1.15,0.14,-11.48,31.858.40,
-0.26,1.14,0.22,-18.34,28.916.72,
-0.3,1.2,0.22,-29.05,27.794.06,
-0.34,1.33,0.14,-40.18,24.57-1.19,
-0.38,1.48,0.06,-47.04,7.35-9.10,
-0.31,1.58,0.11,-57.68,-6.93-17.15,
-0.22,1.64,0.17,-87.15,-10.99-25.48,
-0.06,1.58,0.26,-113.12,-6.51-34.44,
0.09,1.46,0.28,-135.24,0.28-41.51,
0.19,1.16,0.25,-155.4,1.47-44.24,
0.24,1.07,0.3,-167.3,0.07-44.45,
0.18,0.99,0.29,-172.76,6.44-46.76,
0.03,0.91,0.03,-166.6,8.40-49.91,
-0.11,0.93,-0.16,-146.09,0.56-50.19,
-0.21,1.05,-0.06,-129.01,-8.54-51.94,
-0.24,1.18,0.08,-120.75,-17.01-71.40,
-0.24,1.17,0.24,-112.49,-28.77-54.60,
-0.18,1.19,0.36,-104.23,-32.62-52.85,
-0.08,1.18,0.38,-102.48,-33.39-50.12,
0.03,1.13,0.38,-106.68,-31.50-45.29,
0.08,1.08,0.35,-103.18,-28.00-42.98,
0.14,1.01,0.2,-105.49,-30.73-37.52,
0.21,0.77,0.2,-102.97,-31.92-30.59,
0.26,0.78,0.22,-97.58,-25.83-25.20,
0.23,0.74,0.19,-95.34,-19.74-19.81,
0.17,0.67,0.14,-88.55,-19.60-13.23,
0.14,0.64,0.14,-80.29,-21.00-8.19,
0.04,0.57,0.03,-62.23,-28.77-4.90,
0.02,0.67,0.1,-48.79,-31.92-7.84,
-0.05,0.67,0.11,-41.93,-31.29-15.68,
-0.09,0.61,0.16,-31.99,-30.94-20.79,
-0.12,0.55,0.18,-24.36,-34.58-19.81,
-0.11,0.48,0.19,-17.99,-44.03-15.26,
-0.1,0.45,0.19,-11.97,-56.63-10.36,
-0.09,0.42,0.17,-5.11,-70.56-4.13,
-0.08,0.41,0.18,3.99,-83.023.78,
-0.06,0.44,0.24,15.68,-91.287.56,
-0.04,0.48,0.31,29.54,-95.769.80,
-0.05,0.53,0.42,41.72,-96.2511.20,
-0.05,0.51,0.5,62.3,-93.1011.90,
-0.05,0.58,0.56,75.74,-90.6512.81,
-0.05,0.65,0.62,79.52,-86.8013.65,
-0.06,0.69,0.64,77.63,-79.0315.96,
-0.1,0.78,0.62,67.69,-73.8517.15,
-0.18,0.89,0.63,53.9,-67.2014.63,
-0.23,1.05,0.65,35.28,-61.396.23,
-0.22,1.13,0.74,18.83,-56.14-7.21,
-0.15,1.06,0.86,10.64,-52.85-18.62,
0,1.02,0.86,5.6,-50.75-21.42,
0.13,1.1,0.77,-1.75,-50.33-21.42,
0.26,1.17,0.62,-6.09,-50.05-23.87,
0.25,1.21,0.53,-7.49,-56.84-27.65,
0.08,1.22,0.58,-13.72,-70.49-31.36,
-0.11,1.04,0.78,-24.85,-82.95-32.27,
-0.23,0.88,0.85,-30.38,-83.51-32.13,
-0.19,0.98,0.84,-31.01,-63.98-37.10,
-0.01,1.14,0.66,-26.32,-33.74-43.54,
0.27,1.24,0.32,-2.52,-8.12-46.48,
0.47,1.27,0.14,13.3,-12.11-41.37,
0.46,1.29,0.07,12.67,-29.89-28.00,
0.31,1.24,0.06,15.33,-45.01-13.30,
0.17,1.14,0.21,4.76,-55.5117.85,
0.1,0.98,0.36,-11.97,-54.815.04,
0.07,0.75,0.36,-3.71,-26.81-1.96,
0.1,0.66,0.29,14.42,3.92-5.81,
0.14,0.66,0.12,30.38,33.39-6.93,
0.12,0.76,-0.21,47.6,50.68-5.81,
0.02,0.87,-0.24,63.98,45.92-6.51,
-0.02,0.98,-0.21,73.64,32.62-2.17,
-0.04,1.02,-0.1,77.84,25.621.05,
-0.11,1.05,0.05,72.17,26.880.35,
-0.1,0.89,0.17,76.86,35.35-1.19,
-0.15,0.94,0.2,80.43,39.76-2.24,
-0.12,0.99,0.27,78.96,47.67-0.84,
-0.09,1.06,0.28,67.41,59.290.70,
-0.07,0.97,0.2,59.64,65.522.31,
-0.06,0.77,0.05,62.65,58.527.21,
-0.03,0.71,0.03,64.19,51.3112.39,
-0.03,0.68,0.07,58.66,44.4517.15,
-0.07,0.72,0.11,55.37,40.8821.49,
-0.11,0.8,0.15,54.6,39.9723.38,
-0.14,0.89,0.14,55.72,38.5723.59,
-0.17,0.92,0.08,57.61,33.3922.82,
-0.19,0.88,0.04,61.11,26.1822.47,
-0.21,0.84,0.06,65.1,24.4321.98,
-0.2,0.81,0.1,66.64,23.8721.56,
-0.18,0.81,0.15,67.48,24.1521.21,
-0.15,0.85,0.16,67.06,26.3220.79,
-0.12,0.87,0.12,66.64,28.9820.51,
-0.1,0.87,0.08,66.71,31.2221.00,
-0.08,0.88,0.07,66.43,31.7821.49,
-0.07,0.9,0.09,64.82,31.9921.56,
-0.06,0.91,0.13,62.44,31.0821.77,
-0.04,0.91,0.17,59.36,30.3122.82,
-0.03,0.9,0.21,57.89,32.7626.04,
-0.04,0.92,0.22,52.29,37.3128.35,
-0.08,0.95,0.2,44.45,40.1829.68,
-0.09,1.02,0.21,39.76,42.4228.56,
-0.11,1.07,0.22,40.53,44.5926.53,
-0.12,1.1,0.23,42.98,47.0424.08,
-0.18,1.16,0.21,41.02,48.3720.79,
-0.25,1.21,0.13,35.14,47.2516.10,
-0.26,1.25,0.06,24.78,40.6011.34,
-0.26,1.27,0.06,15.19,25.346.51,
-0.27,1.32,0.11,0.14,18.551.89,
-0.28,1.3,0.16,-13.02,16.66-4.20,
-0.28,1.28,0.16,-26.81,14.07-10.22,
-0.33,1.3,0.05,-39.27,3.15-18.76,
-0.36,1.48,0.09,-53.48,-13.51-26.74,
-0.35,1.59,0.15,-65.45,-26.95-36.40,
-0.36,1.6,0.25,-81.76,-31.64-44.80,
-0.33,1.48,0.29,-113.89,-30.10-50.12,
-0.17,1.29,0.39,-140.35,-26.88-50.12,
0,1.04,0.36,-150.92,-25.62-46.06,
0.1,0.8,0.13,-148.54,-26.18-39.69,
0.08,0.79,-0.1,-136.22,-27.93-35.42,
-0.09,0.78,-0.15,-121.66,-41.09-31.57,
-0.24,0.98,-0.03,-106.54,-64.54-27.72,
-0.29,1.11,0.16,-102.41,-74.27-29.47,
-0.29,1.2,0.16,-93.8,-75.18-33.60,
-0.23,1.21,0.19,-83.09,-78.05-39.34,
-0.06,1.24,0.24,-85.89,-74.34-43.12,
0.15,1.13,0.29,-89.88,-58.80-44.31,
0.2,1.02,0.26,-83.09,-39.62-44.17,
0.24,0.95,0.18,-76.58,-25.83-42.56,
0.27,0.88,0.14,-69.02,-18.69-36.12,
0.26,0.8,0.16,-61.67,-14.70-28.49,
0.21,0.75,0.19,-53.83,-13.86-19.74,
0.13,0.73,0.18,-46.62,-34.79-15.26,
0.01,0.7,0.12,-38.64,-25.27-9.45,
-0.07,0.69,0.08,-33.11,-31.43-7.56,
-0.06,0.69,0.04,-31.5,-36.61-4.97,
-0.08,0.68,0.03,-30.52,-43.05-4.83,
-0.01,0.69,0.06,-27.02,-47.39-3.29,
0.04,0.67,0.07,-22.68,-55.721.61,
0.17,0.73,0.17,-18.2,-60.344.69,
0.22,0.75,0.22,-12.6,-59.438.68,
0.27,0.73,0.27,-1.82,-56.8414.14,
0.26,0.72,0.34,9.17,-53.6919.74,
0.23,0.71,0.44,22.05,-50.4025.20,
0.16,0.71,0.46,37.73,-47.7428.77,
0.06,0.71,0.41,53.83,-43.0527.30,
-0.08,0.69,0.35,62.72,-38.9226.04,
-0.12,0.75,0.36,55.02,-36.0524.01,
-0.1,0.81,0.37,46.97,-34.1620.93,
-0.07,0.91,0.4,41.09,-35.9117.78,
0.02,0.96,0.51,41.02,-37.5914.77,
0.11,0.98,0.64,41.16,-35.8410.64,
0.12,0.99,0.72,38.15,-28.913.36,
0.03,1,0.72,26.11,-17.15-3.57,
-0.05,0.98,0.64,6.58,-3.15-10.85,
-0.02,0.94,0.54,-3.22,6.79-17.78,
0.06,0.88,0.51,-1.75,8.68-22.54,
0.09,0.92,0.43,2.52,6.58-26.25,
0.02,0.96,0.39,2.45,-7.00-26.32,
-0.05,0.95,0.44,-1.26,-24.15-25.13,
-0.04,0.95,0.5,-6.79,-27.23-21.77,
0.01,1.07,0.47,-4.48,-22.82-18.27,
0.07,1.23,0.36,4.27,-16.73-15.96,
0.2,1.25,0.33,9.94,-7.56-16.24,
0.29,1.09,0.29,15.68,1.26-14.84,
0.31,1.01,0.26,19.95,1.19-9.87,
0.3,0.96,0.27,16.52,-4.90-3.36,
0.24,0.89,0.4,8.19,-10.924.55,
0.14,0.86,0.51,2.87,-9.945.53,
-0.01,0.85,0.45,-0.35,7.560.42,
-0.05,0.78,0.26,7.28,27.86-3.99,
-0.08,0.71,0.06,26.88,40.81-5.11,
-0.08,0.79,-0.11,37.03,41.02-3.50,
-0.09,0.91,-0.13,38.22,31.22-2.52,
-0.09,0.98,-0.03,34.86,21.63-1.82,
-0.11,0.96,0.14,33.6,16.31-2.52,
-0.2,0.9,0.28,36.47,21.63-5.67,
-0.27,0.87,0.32,47.11,31.29-10.43,
-0.3,0.9,0.31,52.43,39.34-13.86,
-0.31,0.95,0.23,51.66,44.73-15.54,
-0.28,1.02,0.15,46.69,43.96-16.38,
-0.24,0.97,0.08,44.66,35.35-15.47,
-0.15,0.91,0.07,44.17,27.51-12.67,
-0.1,0.87,0.04,46.76,24.50-9.31,
-0.03,0.88,0.07,48.3,20.72-4.20,
0,0.9,0.07,50.75,17.431.26,
0.06,0.96,0.1,50.26,17.785.39,
0.09,0.97,0.1,48.93,21.359.52,
0.1,0.95,0.09,47.11,25.6212.46,
0.11,0.91,0.1,45.22,33.0414.84,
0.07,0.89,0.09,43.54,36.3316.45,
0.03,0.89,0.08,41.51,35.8418.20,
-0.02,0.89,0.09,42.49,35.5620.16,
-0.07,0.89,0.08,45.36,37.8021.21,
-0.11,0.91,0.05,48.79,41.3020.93,
-0.12,0.92,0.06,49.91,42.7721.00,
-0.1,0.97,0.09,49.42,41.9319.74,
-0.09,1,0.11,46.76,38.6418.34,
-0.11,1.01,0.18,44.45,35.4917.64,
-0.13,0.99,0.2,41.09,37.3817.08,
-0.14,0.97,0.2,36.61,40.3916.66,
-0.14,0.95,0.19,30.59,40.8117.64,
-0.14,0.95,0.17,28.63,37.9419.67,
-0.18,0.96,0.17,26.67,35.4921.91,
-0.2,0.95,0.17,25.48,34.3023.10,
-0.21,0.92,0.17,26.74,34.0923.73,
-0.19,0.93,0.14,29.4,34.4422.12,
-0.15,0.94,0.15,32.13,35.8421.42,
-0.16,0.97,0.16,33.67,37.8020.37,
-0.11,1.01,0.19,33.6,39.6220.23,
-0.06,1.07,0.22,29.75,40.4620.51,
-0.04,1.1,0.28,25.27,44.3820.79,
-0.05,1.1,0.28,21.84,50.6120.30,
-0.08,1.1,0.27,16.8,55.3720.37,
-0.13,1.08,0.23,7.7,58.3120.37,
-0.2,1.08,0.16,-1.19,58.4519.60,
-0.24,1.09,0.12,-4.62,53.5517.01,
-0.28,1.11,0.11,-3.57,44.8713.65,
-0.34,1.14,0.21,-7.77,32.979.52,
-0.38,1.12,0.28,-12.18,26.115.32,
-0.39,1.07,0.28,-17.15,23.801.61,
-0.49,1.08,0.27,-24.29,17.43-5.25,
-0.39,1.14,0.26,-31.29,6.79-6.65,
-0.35,1.27,0.26,-47.95,-0.49-11.90,
-0.3,1.37,0.28,-62.72,-5.11-15.54,
-0.21,1.37,0.3,-74.34,-9.73-19.32,
-0.09,1.29,0.26,-83.37,-11.13-21.21,
-0.03,1.16,0.24,-87.08,-15.12-19.67,
-0.1,1.11,0.26,-91.91,-22.12-18.97,
-0.23,1.07,0.19,-94.99,-30.87-20.02,
-0.34,1.01,0.01,-90.93,-43.33-21.63,
-0.41,0.97,-0.1,-84.56,-53.69-24.01,
-0.46,0.95,-0.08,-77.63,-63.00-28.28,
-0.44,0.98,0.02,-70,-74.20-34.58,
-0.3,1.09,0.15,-68.74,-84.14-40.95,
-0.05,1.11,0.22,-66.64,-83.86-46.34,
0.19,1.06,0.31,-56.56,-68.39-49.35,
0.29,1.09,0.3,-48.86,-48.09-50.19,
0.33,1.14,0.28,-46.97,-34.72-48.02,
0.34,1.17,0.35,-51.03,-27.23-40.53,
0.3,1.13,0.36,-55.44,-17.99-34.72,
0.27,1.03,0.27,-60.62,-9.31-26.81,
0.18,0.94,0.15,-66.43,-11.62-17.85,
0.1,0.83,0.06,-74.27,-19.95-8.82,
0,0.77,0.02,-74.34,-27.86-1.33,
-0.1,0.78,0.05,-71.61,-35.212.87,
-0.12,0.8,0.07,-66.01,-37.522.17,
-0.08,0.78,0.09,-54.81,-40.32-0.98,
-0.02,0.72,0.14,-44.03,-40.88-3.64,
0.14,0.81,0.27,-40.53,-33.18-3.99,
0.16,0.73,0.29,-41.86,-27.23-4.20,
0.2,0.73,0.26,-36.96,-24.08-1.68,
0.2,0.73,0.27,-35.98,-24.152.31,
0.18,0.73,0.26,-32.83,-23.946.51,
0.12,0.72,0.24,-25.2,-26.1810.64,
0.08,0.76,0.24,-18.55,-27.9313.65,
0.04,0.76,0.28,-11.41,-27.0214.98,
-0.03,0.71,0.31,-3.15,-28.2117.22,
-0.06,0.68,0.37,6.23,-25.7618.41,
-0.13,0.67,0.37,15.05,-23.7315.54,
-0.18,0.65,0.39,20.09,-21.2112.46,
-0.22,0.6,0.4,28.07,-17.439.80,
-0.2,0.64,0.4,34.72,-15.897.63,
-0.16,0.67,0.42,37.24,-14.845.11,
-0.13,0.73,0.44,42.28,-13.653.43,
-0.1,0.77,0.47,48.02,-11.341.61,
-0.1,0.83,0.48,50.4,-8.68-0.77,
-0.15,0.79,0.52,51.8,-4.69-2.66,
-0.19,0.79,0.52,52.08,-4.34-4.55,
-0.23,0.83,0.53,47.11,-7.49-6.58,
-0.26,0.91,0.51,40.88,-9.24-11.55,
-0.18,0.97,0.5,35.28,-7.00-17.71,
-0.08,1.06,0.55,25.76,-5.46-22.12,
0.04,1.09,0.61,19.25,-7.49-22.68,
0.1,1.12,0.66,17.92,-11.41-21.77,
0.04,1.07,0.73,14.28,-18.20-21.70,
-0.06,0.95,0.77,6.09,-19.18-23.03,
-0.19,0.82,0.73,-4.06,-15.96-25.69,
-0.23,0.68,0.63,-9.45,-7.77-25.76,
-0.15,0.79,0.44,-8.05,4.69-24.22,
0.03,0.94,0.1,11.34,18.83-22.61,
0.19,1.16,-0.1,31.85,5.11-15.82,
0.26,1.32,0,37.73,-13.09-6.44,
0.26,1.4,0.09,37.45,-25.203.01,
-0.13,1.23,0.66,12.11,-7.07-10.99,
-0.08,1.23,0.66,-3.29,-4.27-18.27,
-0.14,1.16,0.66,-9.1,-5.95-22.54,
-0.29,1.08,0.63,-13.72,-17.57-25.20,
-0.49,0.99,0.69,-17.22,-35.14-26.53,
-0.33,0.94,0.71,-25.97,-33.39-28.70,
-0.18,0.97,0.58,-25.48,-14.98-29.61,
-0.02,1.02,0.32,-9.66,2.94-28.49,
0.23,0.98,0.1,22.05,13.86-27.58,
0.48,0.95,-0.03,55.02,18.27-17.64,
0.55,1.12,-0.22,72.03,9.31-3.22,
0.43,1.19,-0.23,62.65,-18.2714.49,
0.31,1.2,0.05,29.05,-35.4926.25,
0.16,1.26,0.42,-15.82,-39.8329.33,
0.01,1.15,0.44,-35.7,-19.1824.92,
-0.02,1.03,0.29,-29.54,10.3617.01,
0.06,0.89,0.29,-19.25,39.9711.76,
0.07,0.78,0.14,5.46,82.537.91,
0.02,0.76,-0.05,36.54,108.783.71,
-0.04,0.8,-0.19,57.4,111.934.48,
-0.12,0.85,-0.37,65.73,93.1711.34,
-0.21,0.87,-0.33,74.34,59.0816.17,
-0.25,0.91,-0.18,82.39,40.5317.43,
-0.26,0.97,-0.05,86.17,28.7717.29,
-0.26,0.98,0.05,85.82,25.6918.97,
-0.17,0.98,0.12,77,26.6022.33,
-0.12,0.89,0.1,71.33,24.6430.52,
-0.01,0.92,0.2,64.05,23.5934.23,
0.02,0.88,0.26,53.97,31.8536.05,
-0.04,0.72,0.13,59.01,33.2538.71,
-0.02,0.81,0.08,61.81,33.6738.78,
-0.06,0.81,0.02,65.1,33.8836.61,
-0.1,0.81,0.02,65.17,33.3935.35,
-0.17,0.81,0.05,66.01,31.9934.09,
-0.24,0.84,0.11,65.59,27.8633.95,
-0.26,0.92,0.17,63.49,24.9233.60,
-0.27,0.98,0.17,59.36,22.4732.83,
-0.26,0.97,0.1,56.49,17.0832.27,
-0.24,0.94,0.09,53.13,10.6432.06,
-0.22,0.88,0.09,51.31,7.0032.13,
-0.2,0.9,0.1,50.47,4.4131.71,
-0.15,0.93,0.09,50.82,5.0431.64,
-0.1,0.96,0.09,50.26,6.0932.69,
-0.06,0.98,0.08,49.91,7.9834.16,
-0.03,0.99,0.06,49.7,10.9235.77,
-0.02,1.01,0.08,48.79,14.3537.45,
-0.02,1.06,0.12,46.97,17.7837.45,
-0.03,1.11,0.17,43.89,24.2936.05,
-0.03,1.14,0.2,39.27,29.0533.95,
-0.1,1.17,0.21,30.24,31.0831.78,
-0.19,1.18,0.17,19.46,31.6427.09,
-0.25,1.17,0.08,11.62,28.0721.77,
-0.28,1.18,0.03,6.51,20.9314.77,
-0.3,1.22,0.03,0.42,13.659.31,
-0.25,1.25,0.08,-9.52,10.433.43,
-0.17,1.24,0.19,-21.14,12.95-1.40,
-0.11,1.18,0.28,-32.62,17.85-4.62,
-0.11,1.12,0.19,-47.18,20.02-5.46,
-0.14,1.09,0.09,-59.71,12.74-5.25,
-0.19,1.17,0.12,-75.46,1.82-7.42,
-0.21,1.25,0.19,-91.07,-3.29-15.54,
-0.19,1.3,0.2,-107.52,1.33-28.49,
-0.07,1.2,0.14,-117.6,9.17-43.33,
-0.01,1.14,0.03,-119.07,9.17-52.43,
0.06,1.18,0.15,-132.44,-3.43-54.11,
0.03,1.14,0.28,-138.6,-22.82-49.00,
-0.08,1.12,0.05,-127.12,-40.95-47.74,
-0.28,1.09,-0.28,-113.19,-47.81-46.20,
-0.33,1.08,-0.26,-101.22,-48.37-43.33,
-0.33,1.04,-0.14,-88.76,-53.76-43.75,
-0.31,1.03,0.11,-79.52,-62.37-44.17,
-0.22,1.11,0.38,-78.12,-58.94-49.28,
-0.02,1.21,0.42,-77.84,-44.59-52.71,
0.2,1.21,0.39,-74.41,-30.66-49.28,
0.34,1.19,0.36,-73.78,-18.69-49.42,
0.37,1.02,0.3,-69.51,-4.41-49.77,
0.33,0.88,0.22,-70.21,4.97-46.48,
0.21,0.82,0.21,-70.14,11.83-42.98,
0.11,0.86,0.17,-69.09,9.52-33.32,
0.02,0.77,0.13,-67.83,1.40-30.38,
0,0.83,0.15,-58.87,-5.74-27.09,
-0.03,0.8,0.19,-57.19,-7.21-27.79,
-0.04,0.74,0.13,-44.87,-14.42-25.62,
-0.09,0.64,0.05,-31.01,-25.06-26.88,
-0.1,0.67,0.14,-25.27,-31.15-30.87,
-0.11,0.6,0.13,-23.8,-36.82-31.01,
-0.06,0.56,0.13,-21.21,-49.77-26.53,
-0.01,0.55,0.15,-16.73,-60.34-21.07,
0.02,0.56,0.17,-8.75,-68.39-13.09,
0.03,0.61,0.2,-5.67,-73.36-6.44,
0.03,0.64,0.3,1.89,-71.89-1.89,
0.01,0.66,0.37,10.29,-66.641.89,
0.01,0.63,0.42,21.91,-57.474.90,
-0.06,0.61,0.4,31.29,-50.128.54,
-0.11,0.58,0.42,41.3,-44.8011.20,
-0.19,0.62,0.41,49.42,-41.5112.67,
-0.27,0.67,0.43,49.7,-41.4411.20,
-0.3,0.75,0.45,49.84,-40.818.68,
-0.29,0.85,0.49,52.36,-37.242.52,
-0.26,0.95,0.54,49.49,-33.25-3.43,
-0.25,1.02,0.65,43.26,-28.91-8.61,
-0.2,1.13,0.68,29.26,-23.73-10.85,
-0.16,1.32,0.67,9.94,-19.18-17.64,
-0.13,1.33,0.59,-1.19,-15.54-25.41,
-0.24,1.29,0.54,-3.15,-26.95-30.45,
-0.37,1.21,0.67,-14,-45.08-35.63,
-0.51,1.06,0.86,-25.62,-58.38-39.27,
-0.46,0.92,0.78,-36.47,-57.26-41.79,
-0.25,0.82,0.7,-36.96,-36.47-41.86,
-0.01,0.87,0.44,-19.81,-4.83-39.55,
0.29,0.98,0,22.89,21.21-31.92,
0.53,1.08,-0.13,69.23,14.49-21.42,
0.7,1.1,-0.2,75.95,-1.33-4.27,
0.61,1.3,-0.23,77.7,-27.5115.89,
0.41,1.38,0.09,44.1,-54.0431.43,
0.23,1.33,0.61,-12.88,-66.9940.04,
0.05,1.13,0.68,-47.74,-35.7035.77,
0.01,0.97,0.43,-35.49,9.3122.89,
0.11,0.86,0.41,-16.45,51.1014.35,
0.08,0.71,0.21,16.73,90.308.82,
0.04,0.69,-0.05,53.97,123.132.66,
0.02,0.7,-0.21,77.84,131.326.65,
-0.11,0.85,-0.4,91.49,111.7215.54,
-0.19,0.94,-0.4,88.9,70.0723.45,
-0.27,0.93,-0.26,95.69,43.6126.25,
-0.31,1.04,-0.1,98.7,24.0124.50,
-0.29,1.04,0.08,102.13,17.0124.50,
-0.18,1.01,0.12,96.11,19.3225.27,
-0.11,0.86,0.09,93.17,17.3634.44,
0.04,0.82,0.21,80.01,35.6342.28,
0.04,0.75,0.25,67.34,24.2247.25,
0.01,0.66,0.16,66.64,30.3850.61,
-0.03,0.73,0.04,73.36,31.5049.91,
-0.06,0.88,-0.01,74.2,33.5344.80,
-0.06,0.9,-0.01,76.09,35.8438.22,
-0.09,0.89,0.01,76.16,37.1734.58,
-0.1,0.9,0.1,73.5,37.7332.97,
-0.1,0.87,0.17,70.42,37.1732.41,
-0.11,0.87,0.18,64.4,37.4532.34,
-0.12,0.83,0.14,59.01,34.1634.65,
-0.14,0.85,0.13,51.94,32.6236.05,
-0.16,0.81,0.12,51.03,30.6638.99,
-0.19,0.84,0.09,51.03,28.6341.37,
-0.17,0.86,0.07,53.69,26.8842.84,
-0.13,0.9,0.05,57.89,25.6244.45,
-0.09,0.94,0.04,61.6,24.5045.85,
-0.07,0.99,0.06,65.24,24.2245.99,
-0.07,1.05,0.09,66.57,26.1145.29,
-0.07,1.17,0.15,62.93,30.1742.28,
-0.09,1.25,0.18,54.46,34.1636.96,
-0.16,1.31,0.21,40.04,35.2829.40,
-0.21,1.31,0.19,24.78,33.7422.89,
-0.22,1.3,0.01,11.9,28.0717.36,
-0.27,1.35,0.01,-3.36,19.9511.83,
-0.29,1.32,0.01,-14.42,11.064.13,
-0.25,1.3,0.14,-23.17,6.44-3.43,
-0.19,1.27,0.23,-34.72,11.48-9.45,
-0.16,1.21,0.17,-51.31,14.35-13.65,
-0.16,1.23,0.14,-68.95,7.91-19.32,
-0.18,1.27,0.11,-87.08,-7.28-28.28,
-0.17,1.41,0.32,-105.35,-21.35-42.35,
-0.1,1.46,0.3,-140.7,-18.20-53.97,
-0.05,1.31,0.17,-168.98,-6.51-60.55,
0,1.13,0.1,-165.2,-4.90-60.83,
0.07,1.01,-0.04,-156.59,-12.32-57.61,
0.1,0.96,-0.12,-144.13,-16.80-53.83,
-0.09,0.99,-0.2,-126.91,-24.36-50.12,
-0.31,1.11,-0.19,-117.74,-38.36-48.65,
-0.34,1.21,-0.08,-108.36,-57.47-47.53,
-0.27,1.32,0.21,-109.13,-70.56-48.09,
-0.14,1.42,0.4,-114.94,-64.12-51.66,
-0.03,1.34,0.47,-115.08,-49.56-54.25,
0.13,1.23,0.5,-111.16,-30.10-51.94,
0.24,1.08,0.37,-102.76,-14.14-49.49,
0.29,0.91,0.28,-92.89,-6.30-45.78,
0.27,0.77,0.22,-86.8,-4.62-40.25,
0.22,0.75,0.19,-82.67,-4.20-35.63,
0.18,0.69,0.15,-80.5,-5.32-30.66,
0.11,0.69,0.1,-74.06,-11.97-26.04,
0.07,0.77,0.13,-75.25,-16.73-23.45,
-0.01,0.7,0.09,-71.82,-19.81-20.30,
-0.06,0.66,0.06,-52.92,-22.12-19.39,
-0.07,0.65,0.01,-38.22,-29.12-22.82,
-0.08,0.66,0.09,-32.06,-29.26-29.96,
-0.08,0.55,0.11,-24.5,-33.81-32.90,
-0.03,0.48,0.17,-16.24,-37.10-30.45,
0.01,0.46,0.19,-14.14,-44.45-26.39,
0.03,0.39,0.16,-5.46,-55.16-21.14,
0.05,0.38,0.17,3.99,-62.02-15.05,
0.05,0.35,0.21,19.18,-63.35-9.80,
0.07,0.38,0.3,31.57,-61.39-3.57,
0.08,0.42,0.4,44.31,-53.554.13,
0.05,0.43,0.43,60.55,-39.5510.22,
-0.03,0.54,0.43,73.01,-31.9214.56,
-0.1,0.65,0.41,81.27,-26.0415.75,
-0.19,0.71,0.4,83.3,-25.0617.50,
-0.24,0.78,0.41,81.55,-27.5117.78,
-0.24,0.92,0.52,71.75,-32.2717.57,
-0.2,1.03,0.68,60.34,-32.2015.82,
-0.14,1.14,0.78,48.23,-21.0012.95,
-0.11,1.3,0.88,22.61,-10.789.24,
-0.08,1.45,0.94,-4.48,0.072.38,
-0.07,1.54,0.8,-20.79,3.92-9.38,
-0.11,1.5,0.72,-18.9,-11.13-18.83,
-0.26,1.31,0.71,-14.56,-32.69-25.62,
-0.4,1.07,0.68,-19.39,-50.61-28.14,
-0.35,0.97,0.66,-29.61,-49.28-23.73,
-0.17,1.14,0.55,-35,-27.09-16.73,
0.04,1.42,0.15,-28.21,-6.37-13.65,
0.35,1.43,0,0.7,9.73-11.62,
0.6,1.28,-0.17,43.89,13.44-5.60,
0.65,1.22,-0.26,62.93,-6.236.02,
0.51,1.02,0.01,38.92,-39.5518.83,
0.34,0.84,0.41,-19.11,-47.0429.19,
0.2,0.77,0.51,-30.87,-19.7428.77,
0.18,0.75,0.31,-19.88,26.4622.89,
0.18,0.82,0.15,-1.61,79.3115.68,
0.07,0.89,-0.08,19.88,116.909.94,
-0.01,0.88,-0.12,42.35,124.8110.29,
-0.03,0.86,-0.18,59.29,110.4619.95,
-0.15,0.89,-0.24,76.3,86.8026.88,
-0.19,0.94,-0.21,79.66,69.4424.71,
-0.25,0.96,-0.11,82.32,54.8823.45,
-0.26,0.97,0.05,90.23,49.3519.32,
-0.24,0.96,0.15,93.66,49.7719.46,
-0.11,0.96,0.17,89.46,53.7622.19,
-0.07,0.86,0.14,86.87,51.5927.93,
-0.03,0.77,0.11,83.58,44.3135.70,
0,0.72,0.1,76.3,40.3942.14,
-0.06,0.65,0.03,74.62,35.4247.81,
-0.13,0.62,-0.1,81.9,23.6651.38,
-0.25,0.77,-0.04,83.65,12.8148.16,
-0.13,0.84,0.01,85.4,9.7344.66,
-0.16,0.86,0.07,86.66,9.8742.56,
-0.17,0.87,0.13,85.75,10.3642.91,
-0.16,0.88,0.18,83.23,13.2343.40,
-0.15,0.88,0.18,81.06,17.2243.54,
-0.16,0.86,0.15,77.21,14.4944.87,
-0.11,0.87,0.13,74.55,12.4646.41,
-0.08,0.88,0.15,71.82,14.8448.23,
-0.05,0.91,0.19,70,20.4448.79,
-0.03,0.9,0.19,68.25,25.6248.16,
-0.02,0.9,0.16,64.82,29.7547.74,
-0.04,0.96,0.13,58.52,31.9945.57,
-0.03,1.01,0.12,52.57,35.1442.91,
-0.03,1.05,0.11,48.02,38.4338.99,
-0.09,1.08,0.08,43.26,40.2533.88,
-0.16,1.12,0.04,38.22,37.9427.51,
-0.23,1.19,0.03,30.59,31.4320.44,
-0.34,1.31,0.03,20.37,22.8213.09,
-0.43,1.4,0.02,7,15.475.95,
-0.35,1.39,0.1,-9.03,11.62-1.05,
-0.26,1.33,0.17,-21.56,10.99-4.76,
-0.24,1.29,0.16,-35.84,10.57-8.19,
-0.24,1.29,0.06,-47.32,7.14-11.69,
-0.22,1.38,0.08,-60.83,0.35-17.57,
-0.25,1.51,0.07,-74.2,-14.28-30.73,
-0.19,1.66,0.19,-93.94,-26.60-45.29,
-0.17,1.61,0.23,-119.7,-28.98-57.05,
-0.13,1.47,0.29,-152.6,-29.05-65.10,
-0.08,1.25,0.11,-167.58,-27.44-69.09,
0,1.11,0.03,-171.57,-37.52-64.54,
0.13,0.99,-0.11,-158.48,-56.56-52.64,
0.13,0.89,-0.38,-134.05,-74.41-45.85,
-0.09,1,-0.23,-124.88,-79.31-41.44,
-0.16,1.14,-0.06,-115.78,-67.27-44.59,
-0.09,1.23,0.15,-109.13,-60.41-51.52,
-0.01,1.32,0.5,-115.36,-52.43-57.89,
0.08,1.33,0.51,-113.61,-40.39-60.41,
0.17,1.25,0.38,-106.96,-29.19-59.08,
0.19,1.11,0.28,-99.75,-22.47-54.53,
0.18,0.98,0.25,-97.23,-16.66-52.92,
0.11,0.82,0.17,-89.39,-14.00-52.01,
0.06,0.71,0.12,-82.74,-18.62-47.18,
0.04,0.69,0.13,-78.12,-19.11-44.45,
-0.01,0.66,0.13,-74.62,-26.25-39.83,
-0.05,0.69,0.13,-69.16,-30.73-38.01,
-0.05,0.67,0.14,-62.23,-34.86-34.79,
-0.04,0.67,0.13,-52.01,-39.62-34.51,
-0.02,0.6,0.09,-37.52,-46.55-35.21,
-0.02,0.54,0.03,-23.66,-56.91-36.40,
0,0.57,0.1,-19.04,-63.49-37.80,
0.04,0.5,0.15,-13.93,-65.87-39.06,
0.05,0.46,0.19,-5.04,-66.01-37.24,
0.05,0.48,0.19,0.42,-67.83-34.37,
0.08,0.43,0.19,6.37,-71.89-29.12,
0.09,0.42,0.19,14.77,-75.11-21.63,
0.1,0.43,0.25,24.57,-74.69-15.89,
0.12,0.46,0.34,33.46,-72.38-10.01,
0.14,0.51,0.44,42.21,-66.43-6.23,
0.14,0.5,0.49,58.59,-50.40-3.43,
0.03,0.57,0.48,76.37,-41.51-0.07,
-0.08,0.68,0.47,86.59,-36.754.06,
-0.2,0.79,0.44,82.95,-36.127.14,
-0.25,0.86,0.46,71.47,-37.1710.15,
-0.27,0.95,0.5,62.72,-39.4113.16,
-0.27,1.04,0.55,52.43,-42.9812.81,
-0.23,1.08,0.65,37.24,-45.7810.85,
-0.18,1.12,0.76,15.96,-43.408.33,
-0.1,1.25,0.86,-4.83,-33.324.06,
0,1.42,0.9,-17.36,-15.47-7.21,
0.07,1.48,0.75,-11.48,-4.48-19.81,
-0.06,1.52,0.74,-6.02,-23.38-23.94,
-0.3,1.32,0.83,-5.81,-54.74-28.14,
-0.39,1.12,0.87,-22.89,-64.40-29.26,
-0.25,1.09,0.77,-49.21,-51.10-25.90,
-0.01,1.24,0.32,-41.09,-14.56-21.07,
0.2,1.39,0.03,-28.14,5.39-15.96,
0.47,1.32,-0.15,5.74,13.30-9.03,
0.58,1.2,-0.3,56.7,8.610.07,
0.51,1.16,-0.3,74.83,-22.966.72,
0.43,0.85,0.04,26.81,-45.9920.09,
0.25,0.71,0.42,-4.41,-52.1530.10,
0.08,0.7,0.39,-16.73,-25.4828.56,
0.05,0.76,0.3,-17.64,14.0027.37,
0.1,0.88,0.2,-11.55,59.2221.42,
-0.11,0.87,-0.06,15.47,99.9614.28,
-0.06,0.89,-0.11,46.76,105.2813.86,
-0.08,0.9,-0.2,64.19,91.2818.69,
-0.1,0.89,-0.22,82.32,72.2419.32,
-0.14,0.94,-0.15,90.65,56.7016.59,
-0.2,0.93,-0.07,99.19,45.9913.23,
-0.25,1.01,0,100.8,38.7114.00,
-0.19,1.08,0.09,95.2,33.7417.50,
-0.13,0.98,0.12,91.63,31.5719.88,
-0.06,0.86,0.12,85.54,26.6726.18,
0.06,0.76,0.22,80.29,29.1231.85,
0.07,0.68,0.2,76.23,34.8637.31,
0.03,0.58,0.08,81.27,34.6545.92,
0.02,0.71,0.04,77.7,29.7547.81,
-0.06,0.79,-0.02,76.65,23.9446.55,
-0.09,0.84,0.02,77.35,22.5443.61,
-0.13,0.81,0.1,81.76,25.0641.44,
-0.16,0.81,0.15,81.34,28.7738.29,
-0.17,0.81,0.15,81.13,31.0835.14,
-0.19,0.86,0.14,78.75,30.2435.00,
-0.19,0.88,0.1,75.18,24.0135.84,
-0.23,0.95,0.08,66.01,16.5936.61,
-0.16,0.94,0.07,63.28,10.3640.04,
-0.12,0.93,0.13,62.02,5.5343.12,
-0.06,0.93,0.21,61.18,6.6545.50,
-0.01,0.94,0.26,61.04,12.8147.95,
0,0.98,0.29,57.4,20.9348.51,
0.02,1.06,0.27,53.62,29.4045.50,
0.05,1.14,0.26,49.07,37.1040.67,
0.03,1.17,0.28,42.21,41.0935.84,
-0.09,1.2,0.25,32.69,39.4129.40,
-0.26,1.23,0.18,19.88,32.3421.00,
-0.44,1.33,0.06,3.92,20.4412.39,
-0.62,1.38,-0.08,-12.6,0.632.31,
-0.57,1.35,-0.1,-24.15,-13.79-8.26,
-0.38,1.33,-0.01,-32.9,-22.68-18.62,
-0.25,1.36,0.14,-45.15,-24.43-21.35,
-0.25,1.42,0.16,-62.02,-26.95-27.44,
-0.22,1.49,0.06,-82.18,-36.40-33.81,
-0.18,1.57,0.13,-107.87,-46.55-42.42,
-0.1,1.52,0.31,-133.56,-46.97-51.31,
0,1.42,0.26,-164.01,-37.24-58.38,
0.03,1.14,0.2,-176.05,-34.44-63.07,
0.07,1.09,0.12,-171.85,-42.63-59.36,
0.06,0.99,-0.17,-154.77,-52.36-52.36,
-0.09,1.01,-0.31,-136.92,-53.13-49.35,
-0.29,1.08,-0.29,-125.72,-55.93-50.96,
-0.31,1.13,-0.17,-111.79,-69.16-54.74,
-0.18,1.31,0.13,-111.02,-79.38-61.25,
-0.07,1.31,0.32,-107.24,-76.65-64.89,
0.05,1.26,0.37,-98.28,-65.94-65.03,
0.14,1.2,0.39,-93.94,-55.72-62.93,
0.16,1.13,0.32,-91.77,-46.97-59.50,
0.17,1.04,0.27,-90.16,-41.23-56.70,
0.17,0.9,0.21,-84.7,-35.00-55.44,
0.13,0.77,0.12,-78.47,-34.02-53.62,
0.07,0.71,0.11,-70.49,-36.12-51.31,
0.06,0.7,0.06,-72.52,-42.35-48.30,
0.01,0.67,0.06,-72.87,-48.72-44.73,
-0.03,0.62,0.08,-63.77,-52.08-40.67,
-0.02,0.66,0.12,-57.54,-47.60-41.02,
-0.01,0.6,0.03,-46.97,-49.84-43.82,
0.01,0.53,0.03,-26.46,-55.72-45.85,
0.03,0.52,0.09,-11.55,-60.48-47.11,
0.06,0.55,0.16,-7.07,-59.08-48.44,
0.08,0.49,0.14,-2.87,-63.07-45.43,
0.08,0.49,0.11,-0.84,-73.36-38.36,
0.09,0.47,0.11,2.8,-84.63-30.38,
0.07,0.51,0.17,8.75,-92.54-19.67,
0.12,0.54,0.28,16.45,-92.33-13.93,
0.12,0.53,0.37,26.6,-87.36-9.66,
0.1,0.47,0.41,48.51,-78.47-3.08,
0.05,0.52,0.46,62.93,-71.897.07,
-0.04,0.67,0.48,69.51,-69.5114.84,
-0.13,0.77,0.46,67.62,-64.7517.43,
-0.21,0.86,0.45,61.67,-57.6818.83,
-0.25,0.93,0.48,57.12,-53.9719.88,
-0.24,1,0.58,49.49,-57.1219.11,
-0.2,1.02,0.69,40.18,-60.7614.91,
-0.19,1.03,0.79,25.9,-60.418.40,
-0.15,1.11,0.91,3.36,-50.610.70,
-0.09,1.25,0.83,-19.88,-36.47-14.84,
-0.05,1.32,0.69,-30.45,-33.81-26.11,
-0.11,1.33,0.59,-18.55,-49.70-30.80,
-0.29,1.29,0.67,-3.43,-66.15-35.70,
-0.38,1.1,0.76,-5.95,-71.54-37.66,
-0.31,0.97,0.8,-14.28,-66.99-34.51,
-0.16,1.06,0.73,-17.92,-50.40-34.58,
0.04,1.23,0.51,-10.64,-30.03-33.53,
0.3,1.35,0.29,-0.35,-14.14-28.70,
0.45,1.34,0.06,12.53,-9.45-20.44,
0.5,1.3,-0.2,41.79,-13.09-10.36,
0.39,1.14,-0.24,41.93,-30.94-5.95,
0.31,0.79,0.12,16.73,-54.117.91,
0.14,0.66,0.33,-11.55,-62.7220.30,
0.03,0.67,0.31,-22.75,-46.3421.56,
0.04,0.91,0.21,-26.04,-14.4924.15,
-0.02,1.06,-0.01,-10.71,14.2820.79,
-0.09,1.01,-0.15,30.03,43.9611.27,
-0.04,0.98,-0.12,58.94,57.759.03,
0,0.96,-0.22,74.13,51.5912.11,
-0.05,0.93,-0.22,77.7,28.0713.72,
-0.02,0.88,-0.09,78.75,15.9612.25,
-0.15,0.86,-0.06,90.72,14.429.10,
-0.2,1.02,0,103.39,13.097.00,
-0.16,1.05,0.06,105.91,16.245.18,
-0.15,1.06,0.06,99.47,12.814.90,
-0.07,0.93,0.09,93.73,6.2313.79,
-0.07,0.73,0.06,95.83,-7.4923.45,
-0.04,0.74,0.15,87.01,-14.0028.28,
-0.07,0.72,0.14,84.56,-17.7132.62,
-0.07,0.81,0.16,76.3,-16.4533.60,
-0.09,0.81,0.15,73.22,-13.1633.46,
-0.08,0.82,0.13,75.18,-10.6432.62,
-0.08,0.85,0.09,76.3,-8.4031.29,
-0.07,0.84,0.05,75.46,-10.5030.38,
-0.05,0.87,0.04,74.55,-10.8529.33,
-0.04,0.84,0.07,74.27,-8.7529.96,
-0.01,0.83,0.1,77.35,-6.5833.04,
-0.01,0.88,0.11,77.42,-7.4936.96,
-0.01,0.92,0.13,76.65,-8.3341.44,
-0.05,0.93,0.15,74.62,-7.9843.47,
-0.04,0.93,0.18,71.26,-0.9843.89,
-0.03,0.94,0.2,67.76,7.8444.73,
0.01,0.97,0.23,61.81,17.7844.03,
0.03,1.03,0.24,57.33,26.7443.26,
0.06,1.09,0.24,52.01,34.7241.79,
0.05,1.15,0.23,46.62,41.4437.87,
-0.02,1.2,0.17,37.87,42.7034.58,
-0.18,1.25,0.11,25.97,32.8330.10,
-0.36,1.25,0.05,14.7,16.1024.01,
-0.58,1.24,-0.01,6.02,-6.3017.99,
-0.7,1.22,-0.04,-2.38,-25.139.10,
-0.61,1.17,0,-6.58,-40.53-0.91,
-0.49,1.19,0.15,-7.84,-41.93-12.11,
-0.26,1.23,0.26,-18.48,-39.48-14.21,
-0.19,1.24,0.26,-51.59,-32.62-15.61,
-0.17,1.31,0.27,-57.47,-31.85-14.77,
-0.2,1.34,0.16,-80.43,-34.65-17.78,
-0.19,1.35,0.09,-104.16,-40.95-23.66,
-0.15,1.33,0.12,-130.69,-45.15-32.76,
-0.1,1.23,0.07,-151.41,-46.27-44.59,
0.05,1.16,-0.01,-165.9,-45.15-56.63,
0.16,1.1,0.01,-173.88,-48.02-66.01,
0.1,1.2,0.13,-172.34,-62.58-66.92,
0.08,1.23,-0.07,-157.43,-72.17-68.67,
-0.08,1.28,-0.26,-139.23,-70.84-75.32,
-0.29,1.28,-0.29,-126.35,-66.01-77.07,
-0.45,1.23,-0.18,-117.25,-77.63-71.89,
-0.42,1.29,0.06,-114.59,-95.13-67.48,
-0.32,1.22,0.26,-111.58,-102.55-68.39,
-0.11,1.15,0.36,-101.57,-98.00-70.84,
0.15,1.15,0.42,-93.94,-81.90-74.34,
0.31,1.15,0.4,-90.3,-61.60-77.35,
0.31,1.09,0.3,-84.21,-46.62-78.96,
0.22,1,0.22,-79.66,-33.95-81.27,
0.09,0.85,0.15,-76.72,-30.45-80.85,
-0.01,0.75,0.1,-72.59,-31.29-80.64,
-0.08,0.66,0.04,-67.41,-39.76-75.81,
-0.07,0.64,0.02,-65.59,-51.03-67.20,
-0.09,0.68,0.03,-58.87,-63.77-62.86,
-0.08,0.69,0.1,-44.45,-71.89-64.68,
-0.12,0.68,0.05,-3.57,-81.20-65.03,
-0.16,0.69,0.06,-3.5,-90.16-68.04,
-0.15,0.62,0.1,9.59,-96.74-67.97,
-0.12,0.64,0.09,14.35,-103.18-69.51,
-0.12,0.57,0.05,16.17,-116.90-64.96,
-0.09,0.56,0.04,18.48,-131.81-60.62,
0.01,0.59,0.11,18.06,-140.07-57.05,
0.14,0.56,0.15,25.76,-140.35-52.99,
0.22,0.54,0.16,29.82,-143.15-44.94,
0.3,0.57,0.34,31.36,-136.08-38.43,
0.29,0.55,0.44,39.2,-124.04-26.46,
0.22,0.55,0.44,57.26,-106.96-19.67,
0.1,0.63,0.36,70.42,-90.09-15.89,
0,0.68,0.34,76.37,-81.06-12.53,
-0.09,0.7,0.35,78.4,-79.87-7.28,
-0.13,0.8,0.43,73.92,-79.31-2.87,
-0.13,0.92,0.56,66.22,-75.46-1.26,
-0.12,1.02,0.64,59.57,-67.13-3.78,
-0.12,1.08,0.7,53.62,-58.66-7.21,
-0.08,1.16,0.78,44.59,-47.95-11.20,
-0.05,1.3,0.79,18.13,-37.73-16.66,
-0.06,1.39,0.77,-4.2,-30.38-24.99,
-0.14,1.38,0.71,-14.35,-31.36-33.04,
-0.29,1.27,0.66,-8.26,-38.43-41.16,
-0.5,1.01,0.65,-1.89,-50.89-46.83,
-0.54,0.79,0.69,-3.08,-60.62-47.46,
-0.37,0.74,0.65,-10.43,-57.54-43.40,
-0.15,0.95,0.52,-10.64,-44.80-36.05,
0.09,1.21,0.16,5.11,-26.95-26.39,
0.31,1.5,0.05,28.84,-13.02-16.80,
0.49,1.58,-0.06,45.36,-10.08-5.81,
0.58,1.51,-0.24,67.2,-19.743.71,
0.48,1.35,-0.18,66.43,-44.732.38,
0.38,0.95,0.15,22.05,-65.037.70,
0.25,0.79,0.55,-14.14,-71.5414.91,
0.11,0.67,0.62,-34.58,-46.5514.98,
0.07,0.61,0.4,-36.26,-9.6613.44,
0.11,0.74,0.35,-42.56,29.3312.46,
0.01,0.61,0.11,-13.09,87.018.54,
-0.09,0.77,-0.24,34.51,106.899.87,
-0.16,1.01,-0.36,72.94,96.326.65,
-0.12,1.07,-0.39,92.19,78.05-0.28,
-0.13,0.91,-0.34,110.46,51.59-2.17,
-0.18,0.99,-0.09,120.05,24.013.71,
-0.27,1,0.14,111.51,10.227.56,
-0.28,1.11,0.24,102.13,9.8010.78,
-0.25,0.96,0.12,124.18,6.3716.10,
-0.09,1,0.16,101.36,5.8121.70,
0.07,0.88,0.26,94.29,9.1027.93,
0.1,0.69,0.25,98.28,12.9534.02,
0.12,0.7,0.14,92.26,18.6940.67,
0.09,0.73,0.03,92.89,21.8442.49,
0.07,0.84,-0.03,86.59,24.5739.97,
0.04,0.87,-0.05,86.38,25.5537.24,
-0.02,0.91,0.02,84.84,29.2634.44,
-0.07,0.89,0.12,85.47,32.9030.31,
-0.11,1,0.16,83.72,36.8926.81,
-0.14,0.85,0.14,79.24,37.3125.97,
-0.15,0.86,0.13,71.33,39.2726.74,
-0.14,0.83,0.05,69.09,35.4929.68,
-0.13,0.83,0,63.21,29.5434.44,
-0.11,0.86,0.01,58.24,22.4738.15,
-0.09,0.88,0.07,58.24,18.2041.16,
-0.06,0.94,0.12,59.43,18.2042.56,
-0.02,0.98,0.17,58.87,22.1942.84,
0.02,1.02,0.19,58.66,26.8841.44,
0.01,1.06,0.2,56.77,32.2739.62,
-0.04,1.11,0.21,51.73,38.2236.61,
-0.12,1.16,0.14,40.81,41.5132.13,
-0.19,1.2,0.07,28.49,38.3624.50,
-0.25,1.22,0.01,19.25,30.8718.48,
-0.37,1.31,-0.06,9.52,16.8710.50,
-0.39,1.33,-0.07,-1.19,5.391.89,
-0.27,1.28,0.1,-8.96,-1.47-6.09,
-0.12,1.19,0.31,-10.15,-2.87-10.50,
-0.03,1.21,0.33,-20.79,3.22-13.79,
-0.08,1.22,0.19,-38.99,11.34-13.72,
-0.16,1.29,0.05,-57.96,13.16-16.38,
-0.16,1.37,0.02,-74.83,2.80-23.10,
-0.11,1.47,0.2,-98.7,-6.09-33.18,
-0.06,1.51,0.35,-128.38,-2.38-47.95,
-0.03,1.46,0.17,-160.02,10.99-63.77,
0,1.22,0.02,-166.25,6.44-69.16,
0,1.14,0.13,-163.24,-13.37-62.44,
0.04,1.08,-0.08,-153.58,-24.01-58.45,
-0.03,1.07,-0.26,-136.29,-24.57-53.34,
-0.25,1.11,-0.22,-122.92,-27.30-49.63,
-0.37,1.17,-0.01,-118.37,-34.02-51.10,
-0.34,1.23,0.2,-119.7,-46.76-51.87,
-0.24,1.31,0.29,-123.34,-56.00-50.26,
-0.13,1.25,0.29,-122.22,-59.36-51.59,
0.05,1.14,0.39,-117.39,-47.67-53.13,
0.21,1.06,0.5,-106.96,-24.29-51.31,
0.22,1.09,0.42,-101.5,-7.70-47.95,
0.2,1.09,0.27,-98.49,-2.24-45.22,
0.15,1,0.17,-96.32,-4.69-41.79,
0.08,0.86,0.14,-85.4,-6.09-41.37,
0.06,0.8,0.09,-80.29,-14.28-36.96,
0.03,0.76,0.07,-76.37,-23.94-32.13,
0.02,0.69,0.09,-71.75,-29.05-28.70,
0.02,0.67,0.15,-63.56,-28.42-27.44,
0,0.57,0.06,-48.02,-32.41-25.55,
-0.02,0.53,0.01,-32.9,-41.09-25.76,
-0.03,0.53,0.07,-24.57,-43.96-26.25,
-0.03,0.54,0.09,-19.11,-51.24-26.18,
-0.01,0.5,0.12,-15.19,-54.81-25.83,
0.01,0.46,0.12,-10.71,-60.55-22.40,
-0.01,0.48,0.11,-6.65,-71.19-19.53,
0.04,0.44,0.18,-0.63,-72.59-18.90,
0.05,0.4,0.23,14.42,-68.67-15.82,
0.06,0.42,0.28,28.56,-60.41-13.37,
0.09,0.43,0.34,40.11,-53.06-8.68,
0.08,0.43,0.37,54.74,-47.46-2.31,
0.04,0.45,0.35,71.26,-43.823.92,
-0.04,0.55,0.36,84.42,-41.938.40,
-0.13,0.66,0.39,92.82,-40.3913.37,
-0.2,0.75,0.41,96.6,-40.8116.80,
-0.21,0.83,0.48,94.22,-42.2819.18,
-0.17,0.95,0.61,91.14,-39.4818.06,
-0.18,1.12,0.7,80.64,-33.6012.53,
-0.21,1.34,0.83,55.58,-28.424.97,
-0.21,1.57,0.95,22.05,-22.47-6.58,
-0.15,1.69,0.94,-7.49,-11.20-25.83,
-0.16,1.59,0.89,-23.24,-13.09-35.63,
-0.33,1.37,0.86,-21.42,-31.50-43.33,
-0.51,1.03,0.82,-18.9,-45.85-46.55,
-0.55,0.77,0.69,-27.44,-51.17-44.59,
-0.38,0.67,0.51,-36.26,-45.78-36.12,
-0.17,1.01,0.33,-32.62,-34.16-20.58,
0.07,1.23,0.19,-21,-28.70-9.66,
0.39,1.4,0.12,4.76,-14.98-2.80,
0.51,1.44,-0.04,40.6,-4.623.92,
0.52,1.4,-0.38,63.77,-9.455.18,
0.45,1.18,-0.16,62.02,-36.896.02,
0.39,0.97,0.36,20.72,-56.9815.12,
0.21,0.78,0.56,-15.19,-48.3717.85,
0.07,0.71,0.4,-22.68,-11.6214.49,
0.16,0.76,0.34,-39.34,20.4414.70,
0.19,0.68,0.26,-29.75,66.7813.86,
0.01,0.65,-0.05,15.82,111.0210.29,
-0.08,0.85,-0.29,47.81,121.0311.48,
-0.04,0.98,-0.37,66.71,102.6215.61,
-0.08,1.02,-0.36,78.89,70.6317.43,
-0.17,1.03,-0.23,98.56,37.5213.51,
-0.27,1.07,-0.06,113.82,21.0012.88,
-0.31,1.14,0.14,108.08,14.2812.74,
-0.3,1.11,0.2,100.1,13.4416.38,
-0.19,0.98,0.14,91,12.0419.53,
-0.1,0.73,0.18,97.23,2.1731.78,
0.07,0.7,0.35,88.27,14.7736.05,
0.05,0.67,0.24,84.28,22.8241.79,
0.05,0.7,0.09,82.6,24.2946.62,
0.02,0.71,-0.07,89.46,17.0849.07,
0.04,0.86,-0.05,90.23,15.3345.57,
0,0.91,0.01,86.73,18.8342.00,
-0.03,0.9,0.07,86.73,23.3840.67,
-0.07,0.84,0.12,86.1,27.0938.36,
-0.06,0.85,0.17,78.68,31.2937.87,
-0.1,0.8,0.16,73.71,31.5038.64,
-0.11,0.84,0.15,66.71,34.2338.50,
-0.12,0.81,0.07,65.52,31.5040.81,
-0.11,0.82,0.04,65.94,27.0245.29,
-0.12,0.85,0.04,65.17,22.6848.65,
-0.12,0.86,0.08,66.01,22.4750.68,
-0.1,0.91,0.11,66.36,23.8051.80,
-0.07,0.94,0.13,65.73,26.2550.96,
0,0.97,0.15,66.43,29.7549.21,
0.05,1.05,0.17,65.17,34.3045.78,
0.03,1.18,0.21,57.96,39.7641.93,
-0.12,1.23,0.14,43.96,41.7935.07,
-0.22,1.23,0.06,29.54,33.0427.30,
-0.36,1.26,0.01,10.5,23.9418.41,
-0.48,1.29,-0.06,-3.64,15.339.24,
-0.48,1.26,-0.04,-9.87,4.97-17.78,
-0.37,1.27,0.1,-14.49,-3.50-8.33,
-0.26,1.28,0.31,-20.02,-3.85-12.81,
-0.18,1.28,0.38,-33.32,1.12-13.58,
-0.21,1.31,0.29,-59.99,11.27-15.61,
-0.2,1.35,0.06,-76.09,11.41-22.47,
-0.18,1.42,0,-90.93,-1.47-31.50,
-0.08,1.53,0.17,-113.54,-9.80-45.78,
-0.02,1.45,0.26,-137.9,-9.80-57.96,
0,1.37,0.18,-169.82,-8.96-67.41,
0.01,1.18,0.17,-190.33,-17.78-72.24,
0.06,1.08,0.11,-178.64,-30.73-70.63,
0.03,0.95,-0.3,-157.22,-44.31-67.41,
-0.09,1,-0.34,-139.79,-53.83-63.14,
-0.3,1.2,-0.16,-129.29,-62.51-58.10,
-0.32,1.33,0.15,-122.85,-65.80-60.48,
-0.21,1.48,0.38,-129.36,-69.93-64.05,
-0.06,1.44,0.45,-132.65,-65.73-63.91,
0.1,1.34,0.37,-125.58,-55.65-63.42,
0.25,1.2,0.45,-114.17,-40.39-59.29,
0.33,1.15,0.44,-108.43,-22.19-53.06,
0.32,1.05,0.34,-107.24,-10.43-50.61,
0.22,0.92,0.24,-96.67,-6.16-49.00,
0.15,0.76,0.16,-87.43,-12.60-44.73,
0.1,0.73,0.17,-78.82,-17.50-41.30,
0.03,0.67,0.25,-71.26,-25.27-37.66,
-0.02,0.64,0.15,-65.31,-29.12-34.51,
-0.02,0.6,0.15,-60.13,-32.06-29.89,
-0.08,0.59,0.07,-48.72,-37.38-30.87,
-0.13,0.58,0.02,-29.33,-45.85-34.93,
-0.13,0.58,0.04,-14.35,-51.03-40.11,
-0.09,0.52,0.05,-3.78,-56.70-42.28,
-0.05,0.48,0.08,-1.33,-62.37-41.72,
-0.03,0.45,0.11,0.42,-67.48-41.65,
0.01,0.41,0.15,-0.14,-70.21-41.58,
0.06,0.33,0.13,7.56,-75.53-38.43,
0.11,0.29,0.17,18.41,-75.11-34.16,
0.12,0.27,0.23,37.17,-70.42-28.28,
0.13,0.28,0.32,52.92,-63.91-21.07,
0.14,0.32,0.42,67.83,-53.48-16.24,
0.1,0.37,0.42,84.56,-44.17-8.12,
-0.01,0.51,0.41,95.2,-38.71-3.01,
-0.16,0.62,0.41,104.02,-35.84-0.07,
-0.28,0.75,0.43,103.53,-37.524.48,
-0.34,0.92,0.49,90.72,-40.889.31,
-0.34,1.08,0.59,74.41,-41.4411.13,
-0.35,1.25,0.66,54.04,-40.603.57,
-0.32,1.33,0.78,35.98,-39.76-5.53,
-0.26,1.41,0.94,16.59,-31.15-14.98,
-0.22,1.43,1.03,-8.47,-19.88-21.91,
-0.18,1.38,1.01,-32.97,-16.73-27.23,
-0.19,1.23,0.82,-21.42,-28.14-33.32,
-0.34,1.05,0.6,-1.89,-47.60-37.45,
-0.41,0.95,0.5,2.1,-59.57-35.70,
-0.29,0.99,0.49,-6.58,-65.38-26.74,
-0.03,1.21,0.48,-10.5,-59.78-16.17,
0.17,1.43,0.45,-2.59,-43.12-9.80,
0.38,1.62,0.42,13.44,-17.64-4.62,
0.57,1.66,-0.13,46.13,15.54-1.68,
0.57,1.55,-0.44,70.84,7.56-1.26,
0.57,1.24,-0.07,43.61,-24.29-4.48,
0.43,0.78,0.34,-12.18,-52.156.16,
0.27,0.56,0.48,-26.74,-30.669.31,
0.26,0.57,0.39,-30.31,3.158.75,
0.33,0.54,0.38,-28,49.9812.25,
0.23,0.58,0.09,1.47,113.6812.60,
0.01,0.87,-0.24,35.7,149.5914.21,
-0.03,0.93,-0.42,67.2,140.4919.11,
-0.06,1.04,-0.46,88.13,94.9925.13,
-0.19,1.12,-0.26,106.54,61.5322.82,
-0.34,1.09,-0.13,99.33,42.5620.51,
-0.4,1.07,0.06,107.45,33.1117.57,
-0.38,1.07,0.15,106.89,31.7815.33,
-0.26,1.02,0.19,101.99,38.2216.10,
-0.08,0.82,0.15,100.73,41.7219.81,
0.05,0.72,0.17,101.57,39.9729.05,
0.16,0.66,0.24,91.49,42.9139.20,
0.09,0.61,0.13,91.91,47.6745.99,
0.04,0.65,-0.1,96.74,46.6951.31,
0.07,0.77,-0.12,96.95,44.1751.31,
0.1,0.89,-0.06,99.19,45.7848.02,
0.03,0.9,0,95.76,52.0845.71,
-0.01,0.9,0.11,92.33,59.7145.78,
-0.06,0.86,0.17,85.96,67.4844.59,
-0.09,0.84,0.18,78.82,71.4044.52,
-0.12,0.79,0.09,72.03,70.2846.27,
-0.13,0.81,0.09,65.59,65.0347.95,
-0.15,0.79,0,62.72,57.5452.57,
-0.17,0.86,0,62.23,51.2456.70,
-0.18,0.9,0.04,62.93,45.7858.59,
-0.14,0.91,0.06,63.91,42.2159.36,
-0.11,0.91,0.1,64.54,40.5358.24,
-0.09,0.95,0.15,64.61,43.5454.04,
-0.04,1.04,0.2,64.33,49.2149.28,
-0.02,1.11,0.25,63.91,56.0743.61,
-0.08,1.2,0.26,54.74,58.6637.94,
-0.24,1.23,0.17,37.24,56.2830.24,
-0.35,1.24,0.02,25.2,49.9821.91,
-0.45,1.31,-0.05,9.8,40.2512.32,
-0.54,1.34,-0.09,-2.24,27.650.98,
-0.46,1.33,-0.01,-10.92,14.77-4.27,
-0.27,1.42,0.12,-17.08,7.42-14.07,
-0.19,1.43,0.17,-37.73,2.59-19.04,
-0.22,1.46,0.12,-52.08,-0.63-26.25,
-0.23,1.54,0.08,-66.5,-4.41-36.12,
-0.22,1.59,0.05,-85.61,-13.16-52.08,
-0.15,1.58,0.24,-109.06,-20.44-64.82,
-0.07,1.51,0.28,-145.53,-24.78-73.50,
-0.04,1.26,0.26,-179.76,-29.54-74.55,
0.06,1.06,0.11,-166.74,-40.67-69.58,
0.18,1.08,-0.19,-159.81,-46.27-62.09,
0.17,1.01,-0.33,-151.48,-44.73-53.76,
0,1.15,-0.27,-133.84,-42.49-43.26,
-0.15,1.32,0.02,-132.23,-44.38-41.93,
-0.1,1.43,0.32,-134.4,-42.91-48.02,
0.02,1.37,0.44,-133.7,-36.26-51.45,
0.08,1.27,0.33,-133.21,-31.57-51.38,
0.19,1.16,0.29,-129.99,-28.14-47.39,
0.21,1.08,0.36,-125.3,-17.85-39.90,
0.18,1.01,0.31,-121.1,-6.86-34.93,
0.11,0.95,0.21,-119.63,-7.28-29.89,
0.03,0.87,0.12,-110.67,-11.34-30.38,
0.04,0.75,0.05,-101.5,-16.31-27.51,
0.1,0.64,0.03,-94.29,-22.26-21.77,
0.09,0.63,0.05,-87.43,-26.74-17.71,
0.09,0.62,0.07,-87.78,-24.36-14.28,
0.08,0.56,0.07,-78.05,-21.35-12.46,
0.06,0.5,0.03,-61.32,-21.21-14.28,
0.08,0.47,0.06,-41.3,-23.66-16.87,
0.05,0.46,0.11,-33.04,-27.37-17.92,
0.05,0.44,0.17,-24.15,-27.16-20.65,
0.03,0.41,0.2,-16.17,-27.44-20.30,
0.05,0.37,0.2,-10.43,-28.42-18.97,
0.02,0.37,0.15,-2.45,-39.20-16.66,
0.02,0.36,0.21,3.01,-44.24-14.42,
-0.03,0.32,0.24,23.8,-50.12-10.36,
-0.05,0.38,0.32,41.23,-53.90-5.60,
-0.05,0.38,0.44,59.22,-51.87-1.82,
-0.06,0.35,0.49,82.32,-45.576.44,
-0.12,0.51,0.48,96.18,-41.1612.32,
-0.22,0.65,0.47,98.21,-39.0614.42,
-0.27,0.72,0.46,96.88,-36.4015.40,
-0.24,0.83,0.53,89.74,-34.7915.19,
-0.2,1.04,0.67,79.73,-36.1212.60,
-0.18,1.26,0.81,61.18,-37.804.55,
-0.17,1.48,0.98,40.11,-35.35-5.74,
-0.11,1.68,1.1,10.78,-14.98-17.78,
-0.03,1.71,1.1,-16.59,4.06-27.65,
-0.08,1.51,0.96,-21.42,-4.13-32.97,
-0.28,1.27,0.81,-9.73,-35.21-38.78,
-0.44,1.05,0.7,-10.71,-56.77-43.61,
-0.34,1,0.59,-23.31,-55.93-37.66,
-0.07,1.29,0.4,-26.39,-35.98-24.78,
0.22,1.54,0.17,-22.12,-12.95-11.13,
0.46,1.63,0.12,-10.57,4.34-3.99,
0.57,1.43,-0.25,39.06,20.16-3.50,
0.5,1.12,-0.4,67.69,1.47-3.64,
0.56,0.82,0.02,31.64,-38.647.84,
0.49,0.53,0.46,-32.27,-64.9631.64,
0.26,0.53,0.62,-54.88,-38.7835.14,
0.25,0.7,0.52,-51.38,14.2828.00,
0.16,0.74,0.32,-17.08,89.1816.38,
0.03,0.77,-0.17,30.66,155.263.36,
-0.08,0.82,-0.32,64.19,174.862.87,
-0.05,0.91,-0.51,80.57,145.8822.26,
-0.09,1.12,-0.47,86.03,77.8434.93,
-0.17,1.23,-0.3,85.47,53.9730.80,
-0.27,1.24,-0.1,91.42,40.9523.94,
-0.25,1.15,0.11,101.57,41.2318.97,
-0.19,1.08,0.19,107.87,49.9815.75,
-0.11,0.92,0.21,105.7,55.0217.78,
0.01,0.7,0.23,95.76,57.4727.65,
0.07,0.64,0.24,89.18,54.6040.95,
0.12,0.64,0.26,85.26,64.6145.99,
0.01,0.62,0.08,85.05,69.5847.67,
-0.01,0.68,-0.08,85.26,67.0647.67,
-0.08,0.71,-0.26,93.1,48.8649.21,
-0.08,1,-0.15,95.2,38.0146.41,
-0.12,0.89,-0.03,94.36,33.3945.22,
-0.16,0.86,0.09,91.84,31.7845.64,
-0.16,0.83,0.16,87.36,31.7145.85,
-0.12,0.83,0.21,78.82,35.9144.66,
-0.1,0.83,0.17,71.89,38.0145.01,
-0.12,0.8,0.13,67.2,35.6347.46,
-0.13,0.82,0.07,64.33,33.5350.68,
-0.11,0.84,0.06,63.77,31.5754.32,
-0.08,0.86,0.06,64.82,29.2657.54,
-0.07,0.9,0.06,66.22,26.0460.13,
-0.08,0.93,0.09,68.11,24.7861.11,
-0.05,0.99,0.14,69.86,28.0759.78,
-0.02,1.07,0.2,69.09,32.4154.81,
-0.02,1.17,0.27,62.86,38.2247.46,
-0.08,1.22,0.25,48.86,45.7136.61,
-0.19,1.23,0.17,26.74,44.5226.46,
-0.29,1.24,0,3.85,40.6717.22,
-0.41,1.27,-0.16,-6.93,28.217.56,
-0.45,1.27,-0.11,-9.1,10.99-1.47,
-0.4,1.34,0.01,-15.54,-2.38-10.64,
-0.33,1.4,0.09,-29.12,-9.94-17.85,
-0.23,1.48,0.08,-42.28,-11.27-28.70,
-0.22,1.61,0.01,-59.36,-21.35-40.88,
-0.15,1.77,0.03,-80.15,-31.92-55.02,
-0.09,1.84,0.28,-108.57,-31.50-67.97,
-0.06,1.6,0.28,-132.09,-24.64-74.69,
0.02,1.23,0.2,-155.4,-20.51-71.47,
0.18,1.02,0.2,-161.28,-22.96-63.63,
0.23,0.98,0.05,-159.11,-26.39-55.37,
0.14,0.92,-0.29,-135.38,-35.98-47.88,
0.05,1.03,-0.25,-123.9,-46.20-41.37,
-0.02,1.16,-0.01,-117.6,-51.87-38.57,
-0.02,1.31,0.27,-114.59,-49.63-43.05,
0.06,1.34,0.44,-116.41,-34.86-49.56,
0.1,1.22,0.4,-114.1,-22.26-52.01,
0.11,1.15,0.35,-108.36,-18.76-49.14,
0.02,1.12,0.25,-108.01,-21.21-43.33,
-0.01,1.09,0.15,-108.78,-25.06-36.89,
0.04,1.05,0.13,-106.96,-28.14-34.79,
0.11,0.89,0.11,-100.59,-30.45-32.62,
0.17,0.81,0.12,-91.91,-28.70-29.68,
0.2,0.77,0.15,-86.94,-24.01-25.97,
0.2,0.73,0.12,-79.45,-20.51-24.78,
0.18,0.69,0.11,-76.44,-16.87-23.80,
0.19,0.67,0.12,-71.54,-10.22-22.75,
0.15,0.58,0.07,-62.51,-7.84-23.66,
0.13,0.46,0.02,-46.62,-11.41-24.43,
0.1,0.47,0.06,-31.5,-16.73-25.55,
0.06,0.47,0.13,-28.35,-20.65-25.48,
0.02,0.47,0.15,-20.58,-28.28-24.99,
-0.02,0.51,0.15,-16.17,-35.42-23.38,
-0.05,0.48,0.15,-9.52,-43.40-19.74,
-0.08,0.5,0.16,-4.13,-52.29-15.19,
-0.07,0.44,0.18,4.69,-56.42-13.58,
-0.05,0.42,0.21,17.92,-58.87-10.43,
-0.04,0.4,0.25,34.3,-61.53-7.28,
-0.05,0.35,0.28,54.95,-61.46-3.92,
-0.06,0.35,0.36,73.57,-58.521.68,
-0.07,0.43,0.41,85.4,-54.819.94,
-0.1,0.61,0.47,87.78,-50.8914.00,
-0.16,0.7,0.51,89.6,-45.6416.10,
-0.22,0.82,0.55,85.54,-41.8613.30,
-0.25,0.92,0.66,80.5,-37.809.24,
-0.28,1.06,0.82,73.22,-30.594.34,
-0.27,1.33,0.89,47.18,-17.78-2.73,
-0.21,1.63,0.95,8.19,-1.61-22.19,
-0.1,1.59,0.82,-10.57,20.72-34.93,
-0.07,1.64,0.67,-15.12,-6.02-36.12,
-0.2,1.51,0.78,-11.55,-51.45-40.95,
-0.42,1.2,0.85,-6.51,-70.35-48.23,
-0.34,1.01,0.82,-26.88,-62.51-49.07,
-0.05,1.1,0.72,-48.79,-28.49-38.78,
0.09,1.32,0.32,-44.59,1.54-29.54,
0.39,1.45,-0.1,-21.35,20.37-18.13,
0.66,1.41,-0.41,37.17,16.31-3.71,
0.73,1.31,-0.55,60.41,-15.337.14,
0.64,1.04,-0.06,19.46,-57.9621.49,
0.49,0.83,0.42,-48.51,-79.3838.36,
0.4,0.71,0.59,-63.49,-54.1140.74,
0.29,0.82,0.48,-35,29.8223.73,
0.15,0.79,0.28,-1.19,109.487.07,
0.04,0.79,0.04,45.08,169.19-4.34,
-0.04,0.76,-0.2,72.73,181.65-3.50,
-0.01,0.78,-0.46,82.67,137.0618.27,
-0.06,1.11,-0.34,81.34,90.5129.61,
-0.19,1.12,-0.24,82.95,67.1326.95,
-0.37,1.22,-0.13,81.69,50.8922.54,
-0.35,1.19,0,107.38,45.1519.88,
-0.28,1.14,0.1,98.98,45.0816.52,
-0.09,0.97,0.19,101.22,48.0918.62,
0,0.78,0.24,97.23,46.0622.61,
0.11,0.63,0.29,94.29,46.6937.73,
0.15,0.59,0.23,88.2,49.4246.20,
-0.02,0.61,0.07,86.38,56.8448.51,
-0.04,0.65,-0.06,85.12,54.3949.91,
-0.08,0.7,-0.18,92.75,41.2351.17,
-0.06,0.85,-0.05,95.9,37.8747.25,
-0.08,0.88,0.05,95.83,38.0144.87,
-0.11,0.87,0.13,91.77,40.4643.26,
-0.13,0.85,0.16,85.19,46.1341.02,
-0.11,0.82,0.17,81.55,48.7240.53,
-0.11,0.81,0.14,73.36,47.1141.86,
-0.12,0.84,0.08,65.52,41.5844.24,
-0.14,0.87,0.06,60.41,37.3846.83,
-0.15,0.88,0.08,61.53,33.1150.68,
-0.11,0.9,0.1,64.05,33.9552.64,
-0.07,0.91,0.08,65.1,35.6354.25,
-0.05,0.94,0.09,65.1,35.9154.18,
-0.04,1.02,0.14,64.61,39.1351.87,
-0.03,1.09,0.2,63.21,44.9447.25,
-0.06,1.17,0.23,56.84,50.1938.92,
-0.16,1.22,0.2,44.87,50.9630.10,
-0.29,1.21,0.1,33.46,43.5422.33,
-0.41,1.25,-0.02,18.13,35.1414.14,
-0.51,1.29,-0.15,0.28,23.664.48,
-0.48,1.3,-0.01,-4.06,8.61-3.64,
-0.33,1.31,0.13,-5.6,-2.10-8.82,
-0.29,1.33,0.3,-15.26,-0.21-13.72,
-0.06,1.33,0.31,-34.23,4.41-16.24,
-0.16,1.3,0.21,-55.37,11.34-18.13,
-0.17,1.32,0.07,-78.75,8.47-22.96,
-0.13,1.37,0.01,-94.85,-2.73-33.39,
-0.01,1.45,0.22,-115.57,-7.28-44.52,
0.06,1.42,0.31,-136.29,0.98-60.27,
0.09,1.27,0.13,-158.06,9.45-66.29,
0.04,1.14,0.14,-172.83,-0.84-63.35,
0.02,1.07,0.22,-172.2,-8.89-56.77,
-0.03,0.98,-0.23,-147.91,-16.03-52.78,
-0.18,1.06,-0.28,-128.45,-27.16-47.74,
-0.33,1.22,-0.14,-115.36,-38.50-44.66,
-0.27,1.33,0.04,-103.32,-47.11-46.97,
-0.14,1.48,0.32,-104.51,-51.31-49.28,
-0.06,1.39,0.42,-105.14,-45.22-50.54,
0.06,1.27,0.39,-105.42,-39.27-50.12,
0.22,1.17,0.4,-101.22,-26.32-48.09,
0.29,1.11,0.33,-98.35,-11.20-44.66,
0.28,1.06,0.23,-96.95,-1.82-41.72,
0.25,0.93,0.16,-93.8,-0.28-38.29,
0.21,0.84,0.11,-85.4,-0.07-36.54,
0.16,0.78,0.1,-79.03,-0.49-33.32,
0.11,0.73,0.06,-77.7,-5.74-29.47,
0.06,0.71,0.06,-72.24,-10.36-25.13,
0.07,0.71,0.08,-69.02,-10.92-21.70,
0.03,0.65,0.05,-59.64,-12.95-19.67,
0.03,0.59,0.04,-47.88,-13.79-22.26,
0.05,0.51,0.02,-33.46,-18.20-25.69,
0.01,0.52,0.07,-27.72,-21.56-28.14,
0.01,0.47,0.09,-23.31,-28.28-27.72,
0,0.45,0.08,-18.41,-37.73-25.76,
0,0.45,0.08,-14.63,-47.32-21.98,
0,0.42,0.09,-6.79,-56.63-17.64,
0.03,0.4,0.17,4.13,-57.68-15.33,
0.04,0.36,0.23,21.91,-55.02-10.50,
0.03,0.41,0.28,39.34,-52.01-5.53,
0.02,0.46,0.38,50.68,-47.46-2.24,
-0.03,0.45,0.4,66.08,-43.821.12,
-0.09,0.61,0.38,78.33,-43.825.81,
-0.16,0.58,0.39,86.31,-46.069.87,
-0.28,0.71,0.44,89.53,-53.0614.35,
-0.36,0.84,0.54,84.77,-56.8417.22,
-0.4,1,0.66,79.1,-55.7217.43,
-0.44,1.21,0.81,64.96,-51.4512.46,
-0.43,1.44,0.89,40.74,-45.15-15.68,
-0.33,1.61,0.97,8.96,-32.13-17.01,
-0.17,1.59,0.96,-21.28,-7.70-31.85,
-0.06,1.42,0.84,-38.57,-1.54-38.92,
-0.12,1.31,0.74,-28.98,-24.36-40.53,
-0.29,1.14,0.72,-15.75,-56.49-42.14,
-0.36,0.92,0.64,-16.45,-74.20-37.87,
-0.15,0.88,0.56,-29.89,-73.36-24.78,
0.03,1.17,0.42,-32.76,-57.40-18.97,
-0.02,1.43,0.45,-114.38,-45.22-56.70,
0.02,1.23,0.39,-104.93,-33.95-57.33,
0.09,1.09,0.41,-99.05,-22.68-55.37,
0.12,1.05,0.34,-99.82,-17.29-52.36,
0.07,1,0.23,-99.4,-21.35-46.83,
0.05,0.89,0.22,-92.54,-24.29-42.77,
0.07,0.82,0.16,-82.95,-24.57-45.92,
0.09,0.72,0.11,-78.61,-28.35-41.86,
0.07,0.68,0.06,-78.26,-35.98-37.10,
0.08,0.62,0.14,-71.61,-39.20-34.72,
0.07,0.57,0.15,-63.63,-35.84-32.48,
0.03,0.51,0.07,-48.93,-39.41-30.03,
0.01,0.52,0.07,-31.01,-47.39-30.59,
-0.02,0.55,0.13,-20.16,-49.07-31.78,
-0.02,0.55,0.17,-15.61,-46.83-32.97,
0.02,0.56,0.18,-13.44,-45.85-34.44,
0.03,0.5,0.17,-5.81,-47.67-32.62,
0.01,0.53,0.17,-2.1,-54.74-28.84,
0.05,0.47,0.2,5.39,-57.47-24.85,
0.07,0.43,0.25,20.23,-56.14-17.78,
0.09,0.43,0.29,36.26,-53.90-9.94,
0.09,0.46,0.35,55.79,-52.01-2.73,
0.08,0.46,0.39,72.24,-46.693.57,
0.03,0.47,0.41,85.75,-42.0711.90,
-0.08,0.55,0.43,94.43,-38.3619.04,
-0.2,0.62,0.41,99.12,-30.6621.42,
-0.3,0.71,0.41,96.53,-22.6124.43,
-0.3,0.83,0.48,80.78,-19.5327.65,
-0.27,0.99,0.57,71.54,-23.3126.95,
-0.27,1.25,0.71,58.17,-33.6021.49,
-0.25,1.6,0.91,35.07,-42.217.77,
-0.23,1.65,1.06,7.21,-32.48-8.40,
-0.17,1.62,0.98,-21.84,-4.27-23.94,
-0.2,1.44,0.9,-42.07,-8.12-31.99,
-0.32,1.19,0.79,-34.51,-32.27-38.50,
-0.47,0.92,0.65,-24.15,-48.58-42.84,
-0.42,0.79,0.54,-24.43,-45.85-42.98,
-0.18,0.86,0.41,-23.1,-24.64-33.95,
-0.02,1.09,0.25,-14.21,-9.10-26.04,
0.28,1.2,0.19,7.49,-2.59-15.75,
0.48,1.37,0.14,53.97,6.79-5.25,
0.53,1.53,-0.19,81.69,9.800.56,
0.5,1.36,-0.45,93.03,-13.580.00,
0.42,1.22,0.24,48.93,-53.9010.15,
0.33,0.98,0.71,-21.07,-61.7415.19,
0.09,0.79,0.5,-34.51,-14.9810.99,
0.16,0.77,0.42,-40.74,27.163.78,
0.25,0.61,0.4,-32.34,78.891.40,
0.09,0.49,-0.05,15.4,134.12-0.21,
-0.11,0.67,-0.3,47.95,151.905.25,
-0.09,0.91,-0.47,65.87,132.8618.97,
-0.08,1,-0.52,80.71,72.5231.57,
-0.15,1.18,-0.37,88.34,43.1934.72,
-0.21,1.18,-0.12,90.44,24.2930.94,
-0.29,1.09,0.1,93.52,17.0125.76,
-0.29,1.03,0.19,91.98,25.1325.13,
-0.23,0.9,0.1,94.85,32.2726.53,
-0.07,0.79,0.09,93.31,33.0431.85,
0.08,0.74,0.2,88.69,32.1340.74,
0.12,0.67,0.24,82.95,37.1746.41,
0.06,0.65,0.12,81.41,43.3349.49,
-0.02,0.68,-0.14,84.56,37.1751.52,
-0.01,0.77,-0.13,91.21,27.4451.59,
-0.03,0.87,-0.05,94.01,24.9947.53,
-0.05,0.91,0.06,91.98,27.4444.94,
-0.12,0.91,0.16,86.94,32.6943.68,
-0.16,0.84,0.2,81.06,35.4242.49,
-0.18,0.82,0.19,76.23,37.6642.91,
-0.23,0.8,0.1,71.33,32.6943.96,
-0.19,0.86,0.05,66.15,29.1945.01,
-0.18,0.87,0.01,65.66,23.4546.97,
-0.16,0.91,0.05,65.52,18.2748.93,
-0.14,0.91,0.08,66.5,16.3151.10,
-0.11,0.93,0.09,66.29,17.0851.52,
-0.05,0.95,0.08,65.17,21.1449.28,
0.03,0.97,0.13,67.13,26.2546.90,
0.06,1.04,0.18,67.76,31.6444.94,
0,1.12,0.2,61.32,37.2442.42,
-0.17,1.18,0.12,48.65,39.7639.34,
-0.27,1.23,0,27.3,37.6633.11,
-0.29,1.27,-0.1,17.99,31.5726.18,
-0.34,1.33,-0.13,10.71,19.3919.11,
-0.36,1.35,-0.07,-0.28,8.6813.23,
-0.29,1.28,0.02,-5.6,5.184.90,
-0.13,1.26,0.17,-11.27,8.54-0.84,
-0.09,1.22,0.26,-18.76,13.58-4.06,
-0.17,1.22,0.22,-38.64,20.58-6.79,
-0.27,1.23,0.07,-52.36,22.96-10.92,
-0.29,1.27,0.02,-62.37,17.29-19.95,
-0.26,1.39,0.04,-75.67,6.51-35.42,
-0.14,1.43,0.14,-98.21,2.10-50.75,
0.01,1.37,0.26,-120.26,5.11-66.22,
0.07,1.32,0.12,-155.54,3.36-75.67,
0.15,1.18,0.14,-168.28,-6.09-77.00,
0.22,1.11,0.11,-165.55,-13.51-73.64,
0.2,1.05,-0.21,-155.05,-16.73-68.04,
0.04,1.08,-0.27,-140.49,-24.64-60.83,
-0.19,1.24,-0.15,-131.25,-42.98-56.56,
-0.23,1.36,0.15,-128.94,-41.72-56.91,
-0.18,1.41,0.38,-127.26,-32.83-59.36,
-0.07,1.34,0.49,-125.44,-25.06-58.87,
0.08,1.2,0.42,-119.14,-22.82-58.03,
0.22,1.07,0.42,-111.79,-16.59-53.55,
0.26,1.01,0.38,-107.52,-7.70-48.16,
0.16,1.05,0.28,-109.41,-6.51-44.24,
0.06,0.99,0.18,-103.04,-10.57-44.03,
0.03,0.85,0.12,-96.81,-15.68-41.23,
0.03,0.74,0.11,-88.83,-19.67-39.13,
0.03,0.71,0.09,-81.06,-21.56-37.66,
0.08,0.63,0.1,-76.02,-23.24-34.16,
0.05,0.57,0.06,-66.64,-32.41-32.55,
0.06,0.55,0.09,-53.27,-36.40-29.68,
0.07,0.55,0.08,-35.49,-41.72-27.72,
0.05,0.58,0.12,-30.31,-44.38-26.46,
0.03,0.57,0.18,-24.15,-43.68-25.13,
0.02,0.57,0.21,-20.72,-44.03-24.57,
0.02,0.51,0.21,-14.42,-45.29-21.14,
0.02,0.5,0.2,-8.75,-45.50-19.46,
0.05,0.45,0.23,15.61,-40.95-16.87,
0.08,0.39,0.21,17.22,-36.68-13.23,
0.07,0.37,0.22,29.75,-36.75-6.86,
0.08,0.38,0.28,40.25,-38.710.42,
0.07,0.4,0.35,53.2,-39.418.47,
0.04,0.43,0.37,67.27,-35.1414.14,
-0.02,0.49,0.4,79.52,-30.4519.60,
-0.08,0.56,0.44,94.71,-25.4824.57,
-0.14,0.64,0.49,102.2,-20.8628.07,
-0.21,0.7,0.53,102.97,-17.1531.15,
-0.25,0.82,0.62,90.79,-15.4036.61,
-0.27,1.08,0.74,69.65,-14.8438.92,
-0.3,1.41,0.8,40.04,-15.5431.92,
-0.32,1.77,0.88,11.06,-18.4114.84,
-0.22,1.98,0.95,-13.23,-11.55-10.43,
-0.12,1.82,1,-29.05,-7.91-27.51,
-0.32,1.53,1.07,-35.98,-27.16-40.60,
-0.55,0.94,0.99,-40.18,-44.80-44.80,
-0.53,0.61,0.79,-50.19,-54.04-40.53,
-0.26,0.56,0.49,-54.88,-38.57-34.65,
-0.05,0.78,0.16,-45.85,-8.54-30.87,
0.17,1.02,0.02,-20.79,0.49-21.84,
0.61,1.15,0.04,26.74,10.36-11.90,
0.65,1.34,-0.21,87.29,12.601.61,
0.6,1.45,-0.51,121.03,-9.176.37,
0.5,1.36,-0.14,70.28,-44.8013.44,
0.31,1.22,0.65,-13.23,-57.6120.51,
0.05,0.92,0.48,-32.55,-22.2614.56,
0.11,1.02,0.36,-47.11,14.986.79,
0.3,0.77,0.35,-58.59,57.477.63,
0.18,0.65,0.14,-16.1,104.091.26,
0.03,0.65,0.09,20.93,150.22-1.40,
-0.02,0.7,-0.26,58.59,160.096.23,
-0.1,0.77,-0.45,87.5,133.5622.33,
-0.09,1.02,-0.45,95.13,97.5827.58,
-0.19,1.17,-0.27,89.18,56.2825.20,
-0.32,1.2,-0.03,91.35,38.6421.00,
-0.37,1.1,0.16,95.76,39.0618.13,
-0.28,0.96,0.2,95.9,50.6823.73,
-0.11,0.84,0.06,92.96,51.0331.99,
0,0.7,0.1,90.44,42.0047.46,
0.12,0.7,0.17,80.99,38.5055.51,
0.05,0.65,0.14,70.91,42.7061.25,
-0.03,0.62,-0.02,80.08,42.1463.35,
-0.09,0.78,-0.1,85.33,36.8260.34,
-0.09,0.83,-0.08,89.18,33.0456.00,
-0.07,0.84,-0.01,94.92,29.6152.36,
-0.1,0.82,0.08,95.55,27.8648.79,
-0.13,0.79,0.14,93.17,30.2448.65,
-0.16,0.81,0.16,87.43,34.5847.04,
-0.2,0.83,0.13,80.43,34.7945.71,
-0.18,0.84,0.05,73.29,29.4746.83,
-0.16,0.86,0.03,67.06,24.2947.74,
-0.13,0.89,0.04,64.61,23.1748.51,
-0.11,0.9,0.07,65.87,22.6149.07,
-0.07,0.94,0.12,67.55,24.6449.49,
-0.02,0.98,0.18,66.57,29.4750.61,
0.01,1.05,0.22,61.95,35.9150.47,
0.01,1.13,0.22,55.37,42.8448.93,
-0.06,1.2,0.15,46.69,47.3944.80,
-0.14,1.26,0.06,34.51,47.8837.10,
-0.24,1.28,-0.04,23.1,41.5828.35,
-0.36,1.32,-0.07,13.37,29.9620.30,
-0.44,1.31,-0.04,2.45,15.6811.97,
-0.38,1.31,0.06,-6.02,3.504.55,
-0.26,1.27,0.2,-11.83,-1.19-2.66,
-0.18,1.25,0.26,-23.31,2.66-9.87,
-0.21,1.23,0.22,-39.48,9.73-11.83,
-0.28,1.22,0.08,-53.48,10.92-16.17,
-0.31,1.32,0.04,-66.36,2.10-24.15,
-0.35,1.43,0.05,-90.51,-9.59-36.61,
-0.28,1.46,0.08,-108.92,-16.24-52.43,
-0.12,1.43,0.12,-128.52,-20.16-66.22,
0.02,1.29,0.13,-148.26,-25.55-74.34,
0.1,1.21,0.29,-162.19,-32.06-72.38,
0.21,1.17,0.21,-166.18,-29.33-68.25,
0.08,1.07,-0.15,-144.9,-29.26-65.10,
-0.13,1.1,-0.39,-126.7,-33.04-62.65,
-0.29,1.18,-0.24,-115.15,-46.41-56.63,
-0.3,1.29,0.07,-109.55,-56.49-57.40,
-0.16,1.4,0.3,-113.75,-63.00-58.10,
0.12,1.35,0.32,-112.56,-60.55-59.15,
0.11,1.21,0.31,-107.1,-52.85-59.64,
0.21,1.11,0.39,-97.93,-33.95-58.17,
0.26,1.11,0.4,-94.36,-12.95-56.77,
0.2,1.13,0.28,-95.13,-4.76-56.63,
0.16,1.02,0.21,-95.41,-4.97-55.58,
0.09,0.93,0.12,-91.21,-5.32-56.77,
0.05,0.77,0.07,-85.33,-13.30-55.93,
-0.02,0.68,0.03,-75.88,-21.35-52.64,
0,0.67,0.08,-75.95,-26.95-45.29,
-0.03,0.61,0.06,-69.23,-34.51-41.02,
-0.02,0.56,0.08,-59.36,-40.25-35.91,
-0.03,0.51,0.05,-46.2,-49.28-32.69,
-0.07,0.54,0.06,-30.87,-63.07-33.46,
-0.07,0.57,0.15,-27.09,-65.87-36.47,
-0.03,0.5,0.17,-24.57,-68.88-33.88,
0.03,0.46,0.15,-22.12,-72.45-30.52,
0.03,0.45,0.09,-15.4,-76.79-26.25,
0.07,0.43,0.13,-7.42,-80.01-22.47,
0.08,0.4,0.13,11.06,-78.12-20.30,
0.1,0.42,0.19,24.99,-74.69-16.03,
0.11,0.41,0.28,36.47,-68.88-11.13,
0.11,0.4,0.35,47.18,-61.39-6.02,
0.07,0.39,0.41,60.27,-55.231.05,
0.05,0.44,0.42,76.79,-48.168.40,
0,0.55,0.42,89.32,-41.8612.67,
-0.07,0.64,0.44,93.8,-34.7916.38,
-0.18,0.72,0.48,93.59,-30.2420.79,
-0.24,0.86,0.58,81.2,-26.6024.29,
-0.3,1.04,0.69,66.64,-25.5525.48,
-0.38,1.3,0.79,46.55,-30.1720.72,
-0.41,1.58,0.93,25.27,-35.843.71,
-0.35,1.73,1.03,4.76,-27.09-13.30,
-0.18,1.71,0.96,-16.66,-2.38-25.97,
-0.15,1.5,0.84,-31.64,-2.52-34.58,
-0.29,1.2,0.75,-27.58,-27.44-35.77,
-0.44,0.96,0.66,-23.59,-52.71-33.18,
-0.29,0.93,0.59,-29.54,-56.07-26.74,
-0.05,1.16,0.38,-27.37,-37.03-16.45,
0.24,1.38,0.17,-11.48,-13.65-7.56,
0.44,1.57,0.08,9.03,3.43-1.05,
0.65,1.5,-0.16,53.27,22.333.50,
0.61,1.34,-0.44,81.06,9.450.28,
0.5,1.04,0.06,56.42,-30.451.68,
0.43,0.82,0.47,-6.3,-52.0815.96,
0.24,0.52,0.55,-29.47,-32.8319.60,
0.2,0.62,0.46,-38.08,14.9818.90,
0.24,0.69,0.39,-45.78,62.0918.62,
0.14,0.69,0.16,-19.88,115.3614.07,
-0.11,0.74,-0.22,25.06,143.9913.79,
-0.17,0.94,-0.37,63,141.3317.71,
-0.19,1.02,-0.37,82.67,117.7417.92,
-0.15,1.03,-0.3,87.36,76.8618.62,
-0.28,1.03,-0.16,91,48.4420.09,
-0.32,1.04,0.06,96.95,34.5820.79,
-0.34,1.09,0.17,93.52,31.8515.47,
-0.26,0.96,0.17,94.5,34.7914.84,
-0.09,0.79,0.2,85.96,36.2619.11,
0.04,0.66,0.21,88.97,33.6029.47,
0.21,0.66,0.28,86.24,41.6538.22,
0.16,0.67,0.22,83.23,53.7643.33,
0.09,0.7,0.07,83.51,59.4345.71,
0.05,0.79,-0.08,83.72,57.9647.32,
-0.05,0.9,-0.1,85.82,50.4745.64,
-0.07,0.94,0.04,86.73,51.1739.41,
-0.1,0.93,0.14,85.12,55.8637.10,
-0.16,0.84,0.2,82.88,59.2936.82,
-0.21,0.84,0.2,76.09,59.9937.59,
-0.21,0.83,0.16,70.98,59.0838.22,
-0.23,0.82,0.06,65.52,50.6841.02,
-0.22,0.8,0.05,63.84,40.6046.20,
-0.2,0.84,0.07,62.37,36.6149.77,
-0.19,0.85,0.11,63.56,31.9953.27,
-0.19,0.85,0.14,65.73,31.5055.02,
-0.17,0.88,0.15,67.34,31.5056.00,
-0.12,0.9,0.17,70.42,33.1855.23,
-0.07,0.96,0.21,72.73,34.9353.69,
-0.1,1.09,0.2,69.51,36.6850.47,
-0.18,1.19,0.14,56.07,36.9644.38,
-0.23,1.24,0.1,38.01,33.6035.21,
-0.26,1.28,0.06,18.55,29.5426.74,
-0.35,1.32,-0.04,4.55,20.7916.59,
-0.39,1.34,-0.06,-6.51,9.664.97,
-0.34,1.3,0.06,-14.84,-1.05-6.02,
-0.21,1.24,0.23,-21.07,-4.69-11.41,
-0.1,1.24,0.36,-35,3.43-13.23,
-0.12,1.21,0.29,-57.05,14.21-11.41,
-0.16,1.21,0.13,-79.31,17.15-12.95,
-0.17,1.31,0.1,-97.3,10.08-21.84,
-0.14,1.42,0.25,-121.17,2.80-35.49,
-0.02,1.51,0.3,-162.68,2.31-56.28,
0.06,1.3,0.19,-192.64,-1.54-69.86,
0.22,1.21,0.09,-188.65,-12.18-75.88,
0.21,1.14,-0.14,-171.57,-19.67-76.65,
0.09,1.13,-0.18,-155.96,-19.11-72.73,
-0.14,1.27,-0.12,-138.04,-10.08-68.88,
-0.42,1.42,-0.07,-128.03,-12.18-66.43,
-0.4,1.53,0.17,-126.42,-25.20-66.64,
-0.31,1.5,0.4,-129.92,-37.03-63.56,
-0.16,1.38,0.42,-127.89,-40.39-61.53,
0.01,1.2,0.36,-117.11,-39.41-59.64,
0.17,1.07,0.42,-111.09,-29.19-53.83,
0.22,1.02,0.37,-106.4,-19.25-49.28,
0.18,0.92,0.3,-98.42,-15.19-45.57,
0.15,0.81,0.22,-90.23,-14.21-43.40,
0.12,0.76,0.12,-84.35,-20.93-42.07,
0.08,0.64,0.1,-78.26,-27.09-37.38,
0.07,0.65,0.09,-73.78,-30.24-32.62,
0.05,0.66,0.05,-77.14,-35.28-28.91,
0.04,0.57,0.07,-65.59,-39.06-28.07,
0.01,0.52,0.11,-47.46,-39.76-26.81,
-0.03,0.5,0.05,-27.02,-43.75-26.67,
-0.1,0.54,0.06,-11.41,-49.98-27.65,
-0.08,0.51,0.13,-4.41,-52.01-27.65,
-0.05,0.41,0.17,-0.21,-53.55-26.60,
-0.05,0.39,0.18,8.12,-56.84-24.43,
-0.03,0.38,0.22,14.56,-58.17-22.96,
0,0.31,0.22,26.74,-59.92-21.14,
0.04,0.27,0.26,39.13,-56.84-17.71,
0.07,0.26,0.3,50.47,-50.68-11.83,
0.11,0.3,0.36,61.39,-44.52-3.01,
0.11,0.33,0.4,75.39,-35.284.27,
0.07,0.4,0.4,94.22,-29.1211.69,
0.01,0.55,0.39,115.64,-24.8520.23,
-0.1,0.74,0.41,120.89,-23.3126.11,
-0.21,0.87,0.49,111.02,-23.1026.95,
-0.27,0.95,0.61,97.02,-21.6327.58,
-0.24,1.12,0.72,80.01,-15.1925.13,
-0.25,1.38,0.78,53.13,-10.5020.09,
-0.23,1.66,0.82,1.61,-10.578.33,
-0.21,1.83,0.87,-27.16,-5.46-10.43,
-0.2,1.69,0.88,-50.33,-7.00-21.63,
-0.29,1.48,0.89,-51.24,-34.58-25.62,
-0.46,1.05,0.88,-38.22,-72.17-29.54,
-0.52,0.78,0.84,-31.99,-82.46-29.89,
-0.4,0.76,0.63,-38.43,-62.09-29.96,
-0.19,0.93,0.38,-37.94,-32.20-25.76,
0.05,1.15,0.17,-23.31,-13.93-19.18,
0.41,1.24,0.17,7.56,0.49-7.91,
0.65,1.44,-0.05,56,13.797.21,
0.63,1.55,-0.35,91.84,2.1713.09,
0.68,1.5,-0.15,88.06,-34.3718.83,
0.52,1.24,0.47,20.3,-57.8923.59,
0.24,0.88,0.67,-25.13,-41.5824.29,
0.09,0.81,0.41,-21.42,-3.5014.84,
0.13,0.65,0.36,-26.32,27.9315.61,
0.13,0.6,0.2,-12.39,74.9010.43,
-0.02,0.6,-0.05,12.6,119.7011.69,
-0.08,0.74,-0.34,43.82,123.9021.42,
-0.13,0.87,-0.52,82.81,92.6127.79,
-0.15,1.01,-0.43,92.96,56.3529.47,
-0.23,1,-0.2,102.55,31.3622.12,
-0.27,1.01,-0.04,111.51,19.0416.59,
-0.27,1.04,0.13,109.9,13.3012.67,
-0.25,1.08,0.25,101.92,22.9610.99,
-0.08,0.97,0.26,93.24,37.389.87,
0.02,0.83,0.19,90.79,38.9915.54,
0.16,0.78,0.27,80.64,41.7224.15,
0.17,0.7,0.31,74.2,53.2031.08,
0.09,0.75,0.17,71.4,63.9835.35,
0.02,0.82,0.02,70,65.8736.82,
-0.04,0.84,-0.09,70.77,59.9936.26,
-0.06,0.85,-0.06,71.19,54.8135.49,
-0.09,0.82,0.06,71.61,53.6234.02,
-0.1,0.82,0.19,68.32,56.4234.09,
-0.12,0.79,0.21,68.25,59.6433.74,
-0.14,0.81,0.17,67.83,60.5534.51,
-0.15,0.82,0.14,63.35,56.2836.33,
-0.2,0.77,0.09,61.46,52.0839.27,
-0.24,0.75,0.07,63.98,47.2543.26,
-0.26,0.78,0.06,66.78,39.2047.04,
-0.23,0.81,0.1,71.26,36.1949.21,
-0.22,0.86,0.1,74.83,32.9051.10,
-0.18,0.89,0.1,78.12,31.6452.50,
-0.12,0.95,0.1,79.87,29.7554.32,
-0.09,1.03,0.1,79.59,27.1655.09,
-0.08,1.16,0.12,69.65,27.5153.83,
-0.09,1.25,0.09,54.81,30.6648.16,
-0.08,1.28,0.05,36.89,31.7139.90,
-0.13,1.29,0.01,25.27,25.5528.70,
-0.24,1.33,0,13.58,11.1318.83,
-0.24,1.35,0.02,0.56,7.917.14,
-0.19,1.27,0,-1.47,3.15-1.96,
-0.13,1.26,0.15,-7.77,-4.27-6.79,
-0.11,1.24,0.31,-26.53,-0.56-8.54,
-0.21,1.24,0.26,-49.7,8.54-11.06,
-0.28,1.28,0.09,-72.45,15.05-19.04,
-0.24,1.36,0.01,-91.35,10.29-32.06,
-0.13,1.41,0.15,-123.55,5.74-49.42,
-0.02,1.48,0.25,-134.12,5.46-65.31,
0.03,1.47,0.27,-171.29,2.45-75.60,
-0.03,1.27,0.27,-185.64,-11.06-76.44,
0.01,1.12,0.09,-181.37,-21.56-70.42,
0.06,1.03,-0.26,-158.06,-19.53-69.23,
-0.12,1.09,-0.33,-143.22,-22.54-63.07,
-0.35,1.21,-0.29,-129.78,-35.42-57.96,
-0.44,1.34,-0.05,-129.78,-51.59-54.32,
-0.4,1.43,0.26,-134.4,-67.62-54.53,
-0.29,1.42,0.35,-137.76,-78.12-56.21,
-0.13,1.23,0.3,-138.39,-77.07-58.87,
0.17,1.08,0.45,-135.94,-53.48-58.24,
0.3,1.01,0.51,-129.57,-24.08-53.48,
0.27,1,0.36,-116.27,-10.64-49.14,
0.22,0.99,0.2,-104.23,-7.49-47.74,
0.2,0.9,0.12,-95.55,-9.87-45.08,
0.15,0.85,0.12,-94.15,-14.91-41.09,
0.12,0.76,0.12,-92.05,-16.38-38.78,
0.03,0.7,0.05,-84.77,-25.27-36.75,
0.03,0.68,0.14,-67.9,-24.64-34.79,
0.01,0.64,0.09,-54.53,-27.51-30.52,
-0.07,0.56,-0.02,-33.67,-39.13-28.56,
-0.08,0.55,0.04,-15.89,-49.00-26.67,
-0.12,0.53,0.09,-11.48,-54.46-25.97,
-0.07,0.49,0.12,-14,-58.80-23.59,
-0.02,0.41,0.11,-11.83,-62.44-19.74,
0.01,0.39,0.1,-9.66,-67.06-17.08,
0.03,0.35,0.12,-0.63,-70.42-14.49,
0.05,0.28,0.18,14.21,-70.56-10.57,
0.05,0.28,0.27,31.29,-67.20-6.30,
0.08,0.26,0.37,52.5,-59.64-2.66,
0.09,0.24,0.45,76.86,-52.152.66,
0.06,0.25,0.47,103.74,-44.809.94,
-0.03,0.39,0.45,115.01,-43.1916.52,
-0.17,0.54,0.47,119.49,-42.9820.30,
-0.29,0.65,0.48,121.87,-42.7728.70,
-0.33,0.92,0.5,115.78,-42.7037.24,
-0.29,1.27,0.53,94.22,-42.9838.01,
-0.3,1.6,0.64,61.95,-47.5326.04,
-0.27,1.76,0.82,15.12,-48.797.77,
-0.21,1.89,1.12,-15.26,-38.50-9.31,
-0.22,1.8,1.12,-37.8,-29.40-22.54,
-0.2,1.39,1.15,-38.99,-30.80-39.41,
-0.24,0.96,0.91,-29.68,-34.02-43.40,
-0.15,0.87,0.61,-24.5,-35.70-36.82,
0.1,1.09,0.31,-32.2,-29.40-26.53,
0.32,1.33,0.11,-42.35,-26.39-16.03,
0.49,1.5,0.09,-32.34,-24.08-7.28,
0.59,1.54,-0.08,1.89,-10.50-0.77,
0.51,1.31,-0.3,42.35,-10.503.78,
0.45,0.96,-0.06,38.36,-48.5113.51,
0.24,0.69,0.38,-5.18,-71.4729.26,
0.04,0.7,0.51,-43.61,-62.1635.70,
-0.03,0.71,0.36,-37.31,-25.9728.56,
0.02,0.85,0.28,-41.72,15.6819.81,
0.02,0.82,0.11,-25.69,64.547.28,
-0.08,0.66,-0.12,22.19,123.410.35,
-0.13,0.75,-0.27,58.94,99.197.70,
-0.14,0.83,-0.28,74.97,61.8116.73,
-0.12,0.94,-0.21,87.01,32.9018.06,
-0.17,1.09,-0.06,94.43,17.9213.51,
-0.21,1.15,0.09,102.62,14.008.75,
-0.21,1.19,0.17,105.21,16.664.90,
-0.15,1.11,0.21,104.16,22.194.34,
-0.08,0.91,0.19,101.92,21.7010.22,
0.03,0.74,0.25,100.1,21.2820.58,
0.11,0.68,0.28,99.12,25.6927.72,
0.1,0.63,0.18,102.2,28.9133.88,
0.13,0.67,0.13,97.3,36.4042.70,
0.02,0.63,-0.06,107.03,27.9344.80,
0,0.76,-0.05,100.1,23.1743.82,
-0.02,0.77,0.01,102.13,24.2242.07,
-0.08,0.85,0.08,98.28,29.3340.32,
-0.08,0.81,0.12,98,33.3939.90,
-0.05,0.82,0.13,96.53,34.1640.39,
-0.07,0.89,0.13,89.95,35.9140.11,
-0.1,0.87,0.08,83.23,36.3342.84,
-0.12,0.89,0.04,77.21,34.7245.99,
-0.16,0.9,0.01,69.79,31.7148.51,
-0.17,0.9,0.03,66.71,27.2351.45,
-0.16,0.93,0.13,63.63,27.5152.36,
-0.13,0.96,0.17,59.5,31.0149.91,
-0.07,0.99,0.2,56.63,34.5845.57,
0.16,0.97,0.31,59.22,42.2141.37,
0.22,1.02,0.44,69.79,49.3538.78,
0.05,1.18,0.39,62.58,55.3738.01,
-0.15,1.18,0.12,46.41,56.9135.21,
-0.38,1.2,-0.09,25.34,49.2130.59,
-0.66,1.26,-0.26,1.05,29.2620.86,
-0.75,1.25,-0.28,-17.22,7.846.51,
-0.31,1.08,-0.2,-21.91,-18.203.71,
-0.32,1.23,0.07,-18.62,-15.96-17.43,
-0.09,1.4,0.19,-30.52,-21.35-21.28,
-0.08,1.58,0.14,-47.67,-15.68-29.47,
-0.02,1.71,0.02,-67.13,-13.37-42.07,
0.03,1.77,0.06,-86.94,-17.08-53.27,
0.11,1.74,0.32,-114.52,-12.67-63.35,
0.1,1.56,0.33,-172.27,-8.12-68.95,
0.1,1.16,0.29,-180.88,-14.07-67.76,
0.22,0.98,0.11,-171.71,-18.27-62.16,
0.23,0.86,-0.36,-155.05,-25.13-52.50,
0.16,0.93,-0.35,-143.01,-32.69-45.08,
0.03,1.11,-0.11,-126.98,-33.53-45.36,
-0.02,1.34,0.35,-120.89,-21.07-51.73,
-0.04,1.43,0.52,-122.15,-7.98-60.13,
0.04,1.32,0.48,-116.48,-2.52-57.40,
0.06,1.27,0.28,-114.1,-5.53-50.47,
0.04,1,0.21,-107.59,-12.60-41.02,
0.02,1.04,0.21,-107.1,-17.71-35.84,
-0.04,0.95,0.15,-100.73,-22.61-37.17,
-0.01,0.81,0.08,-93.8,-28.49-37.73,
0.06,0.7,0.08,-84.21,-30.94-38.22,
0.13,0.66,0.13,-81.9,-29.54-34.37,
0.14,0.63,0.16,-73.85,-26.53-32.69,
0.14,0.63,0.18,-64.68,-21.00-33.39,
0.14,0.63,0.16,-57.12,-16.31-32.62,
0.1,0.6,0.12,-49.42,-14.21-32.69,
0.09,0.52,0.08,-32.34,-14.70-31.57,
0.07,0.51,0.07,-15.82,-17.22-32.48,
0.05,0.52,0.14,-5.32,-19.95-34.79,
0.04,0.52,0.21,-0.14,-20.37-36.12,
0.02,0.47,0.24,3.22,-20.37-38.15,
-0.03,0.41,0.22,11.69,-23.66-37.45,
-0.05,0.38,0.23,17.99,-28.21-33.74,
-0.06,0.32,0.23,28.49,-31.71-28.14,
-0.07,0.3,0.24,39.9,-36.33-21.00,
-0.09,0.34,0.25,50.82,-42.84-13.09,
-0.14,0.36,0.25,66.5,-48.44-3.99,
-0.15,0.41,0.25,81.41,-52.853.15,
-0.14,0.5,0.29,93.52,-53.419.10,
-0.15,0.61,0.34,102.41,-49.9814.91,
-0.12,0.75,0.45,103.04,-43.5421.56,
-0.05,0.93,0.64,97.86,-36.4723.10,
-0.02,1.12,0.77,84.63,-28.0719.95,
-0.04,1.49,0.88,63.21,-17.5011.34,
-0.14,1.92,0.89,31.36,-4.55-2.66,
-0.19,2.16,0.86,-13.72,1.05-21.84,
-0.17,1.9,0.97,-47.74,3.50-34.51,
-0.29,1.63,0.98,-54.04,-14.28-47.95,
-0.41,1.16,0.88,-57.47,-38.99-54.18,
-0.3,0.91,0.83,-66.29,-43.40-48.23,
-0.09,1.02,0.56,-57.12,-2.73-35.70,
0.16,1.34,0.16,-33.53,8.47-16.52,
0.37,1.49,0.04,-9.1,26.74-4.48,
0.54,1.37,-0.21,47.04,49.35-3.85,
0.48,1.04,-0.6,88.9,32.13-5.60,
0.49,0.78,-0.17,75.46,-25.6917.43,
0.36,0.66,0.32,2.73,-69.6518.97,
0.3,0.53,0.6,-42.63,-60.9025.20,
0.25,0.62,0.56,-49,-24.7125.48,
0.22,0.69,0.5,-40.53,35.6323.24,
0.07,0.73,0.13,5.6,112.7012.60,
-0.11,0.87,-0.27,45.99,154.7012.81,
0,1.07,-0.32,65.52,143.5725.55,
-0.01,1.16,-0.42,79.31,108.4332.69,
-0.18,1.21,-0.35,84.84,63.3531.08,
-0.3,1.16,-0.13,88.2,41.5826.81,
-0.32,1.05,0.1,94.29,37.8020.86,
-0.31,0.96,0.22,100.24,46.9016.45,
-0.17,0.93,0.21,97.02,60.9714.91,
-0.09,0.71,0.14,96.74,61.7423.24,
0.05,0.68,0.25,95.34,57.8234.51,
0.09,0.62,0.28,91.21,66.7843.26,
0,0.67,0.08,90.09,71.6148.58,
-0.07,0.72,-0.14,91,63.9852.43,
-0.13,0.77,-0.24,100.52,47.4652.15,
-0.07,0.91,-0.09,98.35,41.7247.67,
-0.09,0.91,0.03,93.94,40.6046.62,
-0.1,0.88,0.13,89.32,41.0947.32,
-0.09,0.83,0.21,84.35,45.7846.76,
-0.08,0.83,0.19,76.09,49.7046.55,
-0.06,0.81,0.1,68.88,49.0048.09,
-0.05,0.84,0.08,62.79,47.6049.77,
-0.1,0.84,0.02,60.06,43.8955.37,
-0.14,0.84,0.06,61.95,40.3259.01,
-0.16,0.84,0.08,66.85,39.2060.62,
-0.14,0.86,0.11,71.82,38.0161.18,
-0.09,0.96,0.16,73.22,40.8859.15,
-0.06,1.05,0.2,72.17,44.3855.58,
-0.03,1.13,0.21,68.04,47.1148.30,
-0.06,1.2,0.21,54.95,49.8441.16,
-0.16,1.24,0.11,36.61,53.6933.04,
-0.22,1.23,-0.02,18.97,50.3324.57,
-0.33,1.31,-0.1,3.15,40.3915.61,
-0.44,1.35,-0.15,-10.5,32.134.55,
-0.43,1.35,-0.05,-17.29,22.47-5.81,
-0.34,1.36,0.15,-25.9,12.32-14.35,
-0.27,1.37,0.24,-41.23,9.87-19.74,
-0.3,1.44,0.18,-56.49,8.75-25.90,
-0.25,1.48,0.08,-73.64,1.96-34.86,
-0.2,1.57,0.07,-91.98,-9.87-46.55,
-0.08,1.56,0.24,-113.75,-12.04-61.53,
0.05,1.54,0.3,-151.48,-11.62-72.94,
0.13,1.23,0.3,-181.72,-16.31-74.48,
0.27,1.1,0.15,-185.15,-25.48-70.91,
0.35,1.02,-0.11,-182.14,-19.81-65.03,
0.26,0.97,-0.33,-164.78,-15.26-54.53,
0.05,1.11,-0.22,-146.65,-15.19-48.23,
-0.12,1.39,0.11,-140.14,-19.04-48.51,
-0.12,1.51,0.44,-137.76,-12.67-58.59,
-0.02,1.44,0.52,-131.81,0.98-58.24,
0.06,1.3,0.41,-128.24,6.58-55.02,
0.1,1.06,0.28,-116.69,2.66-46.41,
0.11,0.95,0.29,-112.7,-1.96-37.87,
0.08,0.91,0.27,-112.07,-5.25-32.27,
0,0.9,0.23,-106.68,-7.28-33.95,
-0.06,0.77,0.13,-94.43,-16.24-33.60,
0,0.7,0.08,-85.12,-25.41-30.52,
0.03,0.65,0.06,-84.77,-31.99-24.01,
0.02,0.59,0.05,-75.67,-37.73-22.40,
0,0.57,0.07,-66.92,-39.55-21.35,
0,0.51,0.08,-53.41,-40.25-20.51,
0.03,0.49,0.11,-36.96,-40.67-21.70,
0.05,0.51,0.11,-25.83,-41.79-21.98,
0.07,0.5,0.16,-22.05,-38.71-23.10,
0.08,0.45,0.2,-13.44,-32.62-23.73,
0.09,0.4,0.22,-2.03,-28.35-22.68,
0.07,0.43,0.25,7.98,-27.44-21.77,
0.04,0.41,0.26,16.87,-28.70-19.39,
0.02,0.38,0.27,20.72,-30.38-15.40,
-0.03,0.36,0.29,27.09,-33.18-10.01,
-0.03,0.36,0.33,34.3,-32.69-4.34,
-0.03,0.36,0.4,53.34,-29.750.56,
-0.03,0.36,0.41,75.39,-25.066.16,
-0.04,0.42,0.39,97.65,-22.7512.74,
-0.07,0.56,0.41,114.17,-23.3819.04,
-0.15,0.65,0.44,119.35,-25.4823.38,
-0.25,0.76,0.54,114.87,-28.8428.07,
-0.23,0.91,0.72,98.56,-21.1429.82,
-0.2,1.23,0.79,68.88,-7.1428.70,
-0.26,1.74,0.83,25.69,-3.2917.99,
-0.26,2.08,0.9,-13.23,-2.45-10.22,
-0.17,2,0.97,-35.98,-1.19-23.87,
-0.21,1.75,1.1,-45.85,-23.59-31.78,
-0.4,1.32,1.08,-50.26,-48.37-41.93,
-0.39,0.85,0.93,-52.5,-56.21-41.79,
-0.26,0.64,0.71,-56.28,-48.09-37.66,
-0.05,0.72,0.32,-47.6,-20.51-32.06,
0.1,1.08,0.01,-31.78,2.80-22.26,
0.33,1.21,-0.12,5.81,20.65-13.72,
0.58,1.26,-0.31,70.42,33.32-2.59,
0.66,1.3,-0.55,122.15,3.369.59,
0.56,1.27,-0.35,78.05,-48.3024.57,
0.37,1.21,0.53,-11.76,-87.0137.59,
0.25,1,0.64,-50.75,-69.5840.39,
0.21,0.93,0.43,-42.42,-19.8828.84,
0.28,0.81,0.4,-28.49,58.8019.04,
0.19,0.78,0.12,0.21,124.187.63,
0.08,0.79,-0.07,42.42,149.807.42,
0.03,0.77,-0.33,77.42,136.0119.95,
-0.07,0.84,-0.4,99.75,109.4826.81,
-0.14,0.94,-0.37,102.27,82.6025.97,
-0.26,1.01,-0.21,94.78,58.5921.63,
-0.33,1.07,-0.02,96.88,45.2217.08,
-0.26,1.13,0.16,94.92,51.9411.76,
-0.11,0.97,0.24,87.5,64.5412.25,
0.01,0.76,0.18,90.02,65.1024.99,
0.14,0.81,0.22,84.07,66.6436.26,
0.13,0.64,0.19,83.3,64.4744.10,
-0.09,0.66,0.1,78.68,69.0246.69,
-0.09,0.69,-0.06,70.84,62.9350.54,
-0.12,0.75,-0.14,82.18,52.4350.40,
-0.08,0.8,-0.06,86.31,47.2547.53,
-0.06,0.81,0.01,88.48,45.2245.99,
-0.06,0.79,0.1,88.48,49.0743.75,
-0.09,0.83,0.18,83.65,55.1643.19,
-0.14,0.84,0.18,77.49,57.3343.89,
-0.21,0.85,0.11,73.01,50.7545.92,
-0.23,0.84,0.06,70,41.4450.75,
-0.25,0.83,0.08,64.47,34.8654.81,
-0.26,0.86,0.1,61.11,32.9056.07,
-0.2,0.87,0.13,61.46,32.9056.14,
-0.14,0.93,0.15,63.49,32.5554.95,
-0.06,1,0.18,64.19,35.1450.75,
-0.02,1.1,0.22,60.27,40.6043.89,
-0.01,1.14,0.23,55.93,46.6235.35,
-0.1,1.16,0.14,48.44,47.8127.86,
-0.17,1.17,0.03,39.55,47.3920.23,
-0.24,1.19,-0.05,30.52,44.8715.47,
-0.34,1.3,-0.06,21.42,32.9711.27,
-0.43,1.39,0.02,9.94,22.755.18,
-0.37,1.38,0.14,-9.24,15.61-1.82,
-0.24,1.33,0.27,-21.49,15.19-5.04,
-0.19,1.34,0.22,-32.27,20.02-8.19,
-0.23,1.39,0.08,-46.76,18.20-12.39,
-0.32,1.45,0.01,-63,1.40-17.50,
-0.28,1.45,0.03,-82.67,-11.34-28.28,
-0.21,1.47,0.12,-106.75,-17.29-42.28,
-0.13,1.46,0.27,-130.69,-13.37-58.87,
-0.05,1.38,0.14,-166.04,-10.50-70.07,
0.01,1.18,0.17,-180.67,-21.91-71.33,
0.12,1.09,0.21,-176.96,-36.19-66.78,
0.27,1.02,-0.06,-175.14,-36.47-63.28,
0.19,0.98,-0.33,-158.69,-40.18-55.58,
-0.06,1.19,-0.28,-143.36,-43.12-50.33,
-0.28,1.31,0.04,-135.59,-45.92-49.91,
-0.29,1.42,0.3,-131.74,-48.09-54.18,
-0.19,1.45,0.54,-130.76,-41.09-59.29,
-0.03,1.31,0.43,-129.64,-30.17-60.83,
0.19,1.14,0.42,-123.13,-20.44-54.74,
0.27,1.05,0.38,-117.39,-10.36-49.91,
0.22,0.98,0.29,-114.73,-6.02-44.80,
0.11,0.89,0.22,-108.36,-10.01-40.39,
0.08,0.78,0.18,-96.6,-11.27-38.15,
0.04,0.71,0.12,-92.05,-15.61-32.97,
0.03,0.66,0.07,-81.27,-25.06-28.84,
0.04,0.64,0.06,-79.8,-31.57-26.39,
0.03,0.55,0.04,-70.35,-37.80-23.45,
-0.05,0.49,-0.01,-49.98,-45.29-23.10,
-0.06,0.51,0.02,-30.52,-49.35-24.08,
-0.08,0.56,0.05,-22.19,-53.69-28.77,
-0.07,0.53,0.1,-16.45,-53.76-30.17,
-0.01,0.43,0.18,-13.58,-49.49-29.96,
-0.01,0.38,0.2,-2.31,-49.07-27.51,
0.02,0.41,0.26,2.8,-47.81-25.06,
0.04,0.4,0.23,9.17,-50.19-21.63,
0.06,0.39,0.22,13.23,-52.29-15.75,
0.07,0.35,0.25,22.82,-52.85-9.10,
0.11,0.33,0.32,37.31,-49.35-2.80,
0.12,0.32,0.38,60.13,-43.262.17,
0.1,0.34,0.43,89.46,-36.549.94,
0.04,0.45,0.44,108.92,-35.0017.01,
-0.09,0.59,0.45,116.9,-37.8721.35,
-0.24,0.7,0.49,117.25,-40.3926.67,
-0.32,0.83,0.57,110.67,-38.5032.06,
-0.29,1.09,0.65,90.79,-25.3433.81,
-0.27,1.42,0.7,49,-18.9028.56,
-0.27,1.67,0.81,18.48,-20.7213.30,
-0.2,1.81,1.02,-4.13,-14.21-4.90,
-0.15,1.84,1.02,-25.48,-7.56-22.96,
-0.2,1.5,1.04,-39.69,-20.58-30.03,
-0.33,1.15,0.99,-30.03,-50.96-35.49,
-0.39,0.86,0.8,-21.91,-63.21-35.00,
-0.2,0.79,0.49,-23.87,-53.48-30.31,
-0.04,0.98,0.23,-29.89,-30.31-23.94,
0.13,1.24,0.01,-25.34,-14.63-16.87,
0.36,1.49,0.03,-1.05,-7.70-6.51,
0.6,1.51,-0.28,51.17,5.88-2.59,
0.63,1.38,-0.52,92.54,-25.696.23,
0.56,1.25,0.01,24.71,-77.4919.11,
0.39,0.84,0.7,-40.53,-89.3934.37,
0.12,0.76,0.47,-38.43,-46.7632.55,
0.11,0.81,0.36,-36.89,5.4619.46,
0.17,0.77,0.2,-24.5,67.348.12,
0.05,0.7,-0.08,12.74,128.100.35,
-0.11,0.81,-0.27,48.44,135.802.45,
-0.13,0.78,-0.5,83.02,98.5613.58,
-0.11,0.86,-0.44,94.57,53.2023.52,
-0.15,0.97,-0.25,98.35,25.9023.52,
-0.22,1.08,-0.02,105.56,17.5714.42,
-0.22,1.12,0.15,115.64,18.768.89,
-0.15,1.09,0.25,105.98,31.017.63,
-0.07,0.91,0.18,106.33,37.8712.95,
0.08,0.83,0.16,100.17,36.4723.80,
0.2,0.75,0.26,91.84,36.4732.97,
0.17,0.65,0.25,87.29,40.6741.37,
0.08,0.61,0.1,84.84,49.2149.21,
-0.06,0.65,-0.08,89.67,44.6650.54,
-0.08,0.79,-0.1,84.63,41.3046.34,
-0.03,0.81,-0.06,85.75,39.2042.91,
-0.05,0.79,0.03,88.62,42.0738.57,
-0.05,0.81,0.11,86.45,46.6235.35,
-0.06,0.81,0.13,82.74,49.4234.93,
-0.08,0.85,0.11,77.56,48.1636.05,
-0.1,0.94,0.14,71.54,45.0136.68,
-0.17,0.9,0.11,65.52,41.7939.69,
-0.23,0.88,0.11,62.02,39.1342.98,
-0.26,0.89,0.14,59.01,37.8746.20,
-0.26,0.9,0.11,55.72,36.3349.00,
-0.2,0.93,0.09,50.75,34.3048.86,
-0.09,0.92,0.14,51.66,32.1347.18,
0.04,0.96,0.24,59.15,32.4147.60,
0.01,1.06,0.26,61.11,38.0844.10,
-0.1,1.15,0.15,51.45,42.2839.76,
-0.21,1.2,-0.01,37.1,39.4133.18,
-0.31,1.22,-0.08,24.43,31.7123.38,
-0.48,1.31,-0.15,12.88,19.1813.79,
-0.52,1.37,-0.14,2.59,4.062.31,
-0.37,1.33,-0.03,-0.49,-6.16-6.30,
-0.18,1.35,0.16,-9.1,-11.55-10.22,
-0.18,1.35,0.25,-21.77,-7.91-12.88,
-0.15,1.35,0.24,-42,1.12-14.49,
-0.16,1.38,0.1,-60.83,7.00-18.06,
-0.16,1.46,0.04,-79.1,-16.87-26.32,
-0.16,1.56,0.1,-102.27,-8.19-38.50,
-0.07,1.5,0.2,-135.87,-2.66-53.34,
-0.03,1.4,0.06,-166.53,-1.54-66.29,
0.03,1.24,0.18,-190.82,-17.64-71.40,
0.11,1.1,0.28,-194.6,-34.51-67.62,
0.21,0.92,-0.13,-176.61,-38.85-64.68,
0.14,0.95,-0.36,-151.76,-36.96-61.04,
-0.08,1.13,-0.27,-141.33,-36.26-57.33,
-0.21,1.31,0,-127.4,-40.67-56.42,
-0.23,1.51,0.41,-129.85,-43.82-63.35,
-0.17,1.57,0.57,-134.19,-42.07-64.47,
-0.04,1.4,0.46,-129.36,-34.72-59.64,
0.1,1.2,0.4,-118.3,-26.88-54.74,
0.24,1.03,0.38,-111.51,-14.84-49.42,
0.21,0.98,0.3,-105.35,-5.88-47.46,
0.14,0.86,0.21,-97.44,-9.24-45.15,
0.09,0.75,0.14,-90.79,-13.58-42.56,
0.02,0.69,0.14,-82.04,-21.35-39.55,
0,0.65,0.13,-78.4,-25.76-36.47,
-0.04,0.62,0.1,-73.08,-34.09-35.07,
-0.01,0.58,0.13,-69.93,-36.75-31.50,
-0.02,0.53,0.12,-54.39,-38.36-29.05,
-0.04,0.52,0.11,-37.17,-37.80-30.38,
-0.05,0.5,0.04,-19.18,-41.09-31.78,
-0.06,0.49,0.08,-9.45,-44.10-35.14,
-0.06,0.45,0.16,-4.48,-46.06-34.72,
-0.01,0.37,0.2,1.75,-42.98-35.35,
-0.02,0.37,0.21,11.13,-41.44-34.86,
0.01,0.35,0.18,11.83,-44.52-32.06,
0.06,0.29,0.16,19.74,-48.30-27.72,
0.08,0.24,0.19,33.46,-49.21-19.39,
0.08,0.28,0.25,50.96,-49.28-12.74,
0.09,0.31,0.31,69.09,-46.97-5.81,
0.07,0.38,0.35,86.03,-45.082.59,
0,0.52,0.38,104.58,-43.059.80,
-0.09,0.65,0.42,113.68,-37.9412.46,
-0.2,0.74,0.48,116.41,-31.0115.26,
-0.27,0.91,0.61,105.21,-24.7822.33,
-0.24,1.15,0.69,84.49,-17.8523.45,
-0.22,1.39,0.71,63.91,-11.3414.63,
-0.2,1.59,0.78,42.91,-7.000.63,
-0.21,1.79,0.9,8.54,-2.80-12.32,
-0.25,1.86,1.01,-26.53,-5.74-22.47,
-0.3,1.68,1,-40.53,-22.68-32.13,
-0.45,1.21,0.88,-32.55,-46.13-44.03,
-0.54,0.94,0.73,-24.92,-56.07-49.35,
-0.38,0.79,0.54,-29.89,-43.19-45.99,
-0.17,0.95,0.3,-28.42,-27.51-30.31,
0.06,1.22,0.15,-15.75,-19.95-14.14,
0.41,1.4,0.14,19.18,-5.39-0.84,
0.65,1.52,-0.03,59.15,12.8811.83,
0.71,1.44,-0.35,89.88,13.729.66,
0.61,1.2,-0.25,88.62,-30.802.87,
0.5,1,0.38,9.38,-57.966.23,
0.27,0.7,0.66,-32.83,-42.709.73,
0.18,0.5,0.46,-26.04,-8.6110.71,
0.23,0.59,0.48,-55.23,18.1313.16,
0.3,0.49,0.48,-65.45,62.7917.85,
0.09,0.5,0.12,-20.51,136.9219.18,
-0.22,0.95,-0.23,26.67,153.3025.90,
-0.27,1.09,-0.43,73.71,140.6323.52,
-0.27,1.22,-0.49,91.63,105.9124.01,
-0.31,1.16,-0.31,97.3,61.3224.50,
-0.34,1.08,-0.03,103.32,29.4020.51,
-0.36,1.07,0.21,100.66,15.6814.70,
-0.32,0.92,0.23,95.41,19.749.80,
-0.17,0.87,0.22,96.04,30.5210.78,
-0.07,0.7,0.18,98.35,30.7319.39,
0.12,0.59,0.32,104.37,34.6530.66,
0.21,0.62,0.27,98.7,50.9640.04,
0.2,0.74,0.02,97.72,60.8348.58,
0.12,0.86,-0.18,97.65,56.7051.10,
0.09,0.91,-0.22,95.69,46.8351.31,
0.05,0.98,-0.15,92.54,43.1949.63,
0.02,0.94,0,85.82,42.0050.05,
0.02,0.89,0.16,79.24,45.0850.12,
0.03,0.86,0.22,72.66,52.7848.02,
-0.01,0.83,0.18,67.9,60.6945.43,
-0.05,0.75,0.09,65.31,63.5646.27,
-0.09,0.82,0.04,61.6,63.0047.11,
-0.1,0.8,-0.01,60.55,58.5949.35,
-0.13,0.83,0,62.3,52.7851.73,
-0.19,0.87,0.03,63.49,46.6254.60,
-0.23,0.92,0.07,65.24,42.7756.70,
-0.25,0.96,0.11,65.59,41.5855.51,
-0.23,0.97,0.14,64.96,40.4654.18,
-0.2,0.99,0.19,66.57,37.0352.15,
-0.22,1.07,0.26,66.01,32.3450.75,
-0.27,1.2,0.23,54.39,32.4147.32,
-0.3,1.27,0.08,34.3,35.3538.85,
-0.25,1.28,-0.05,16.87,33.7431.36,
-0.32,1.3,-0.14,3.08,23.3823.03,
-0.36,1.26,-0.17,-7.63,14.7712.18,
-0.32,1.23,-0.08,-9.45,5.670.98,
-0.19,1.25,0.2,-11.34,-1.19-7.00,
-0.14,1.28,0.28,-23.24,-1.26-11.97,
-0.17,1.3,0.25,-39.76,5.46-15.54,
-0.22,1.32,0.14,-55.3,8.96-21.63,
-0.22,1.4,0.08,-70.84,-0.49-32.13,
-0.19,1.54,0.08,-99.47,-6.93-47.32,
-0.01,1.56,0.15,-120.82,-3.08-63.42,
0.06,1.5,0.14,-152.88,-1.75-72.73,
0.13,1.3,0.2,-172.34,-7.35-74.41,
0.25,1.16,0.21,-175.28,-14.07-71.26,
0.35,1,-0.16,-165.62,-14.91-64.68,
0.22,1.02,-0.3,-127.75,-12.81-56.77,
0,1.14,-0.14,-128.52,-14.21-49.84,
-0.11,1.37,0.24,-122.43,-11.90-52.08,
-0.08,1.52,0.41,-124.6,-6.23-59.22,
0.01,1.37,0.52,-127.33,1.05-59.29,
0.05,1.23,0.39,-122.43,4.41-55.30,
0.07,1.07,0.33,-112.91,3.15-49.63,
0.04,0.99,0.36,-108.36,4.90-42.07,
-0.03,1,0.3,-105.35,2.66-38.43,
-0.1,0.92,0.18,-97.51,-4.06-40.11,
-0.05,0.83,0.15,-90.58,-10.22-40.32,
0.01,0.7,0.15,-88.48,-14.49-36.68,
0.03,0.63,0.12,-78.82,-18.69-33.25,
0.06,0.62,0.13,-75.74,-21.70-29.96,
0.04,0.57,0.11,-66.43,-25.55-29.19,
0.02,0.53,0.1,-52.57,-29.12-29.05,
-0.01,0.49,0.04,-35.91,-35.28-27.72,
-0.04,0.52,0.03,-27.51,-42.91-27.16,
-0.05,0.52,0.09,-25.62,-49.21-26.60,
0,0.49,0.16,-25.06,-50.47-26.46,
0,0.43,0.21,-16.03,-49.35-24.08,
0.01,0.44,0.25,-6.51,-45.78-23.24,
0.04,0.43,0.25,0.84,-44.03-20.72,
0.04,0.39,0.22,11.41,-41.16-17.92,
0.06,0.36,0.2,23.17,-39.55-11.13,
0.04,0.38,0.24,33.11,-43.54-4.06,
0.01,0.38,0.3,46.69,-46.552.59,
-0.03,0.38,0.34,67.97,-47.4610.57,
-0.08,0.45,0.35,83.93,-45.9916.38,
-0.15,0.56,0.4,95.2,-44.3819.88,
-0.23,0.69,0.46,96.39,-43.4022.33,
-0.27,0.8,0.57,92.26,-43.1225.13,
-0.24,0.95,0.7,84.28,-39.8327.58,
-0.27,1.22,0.75,59.64,-38.0126.11,
-0.38,1.5,0.81,25.97,-40.6017.92,
-0.39,1.68,1.02,-13.37,-36.402.10,
-0.33,1.63,1.08,-44.59,-16.59-17.99,
-0.24,1.33,1.01,-60.69,-2.24-27.02,
-0.08,1.15,0.79,-41.16,-14.98-27.44,
-0.09,1.18,0.6,-7.21,-36.82-31.50,
-0.15,1.15,0.54,6.79,-48.30-32.27,
-0.01,1.25,0.54,0.42,-47.39-26.39,
0.22,1.51,0.46,-10.85,-36.40-18.34,
0.3,1.72,0.36,-18.34,-20.30-4.48,
0.39,1.73,0.22,-13.09,8.540.56,
0.4,1.4,-0.23,23.87,38.36-4.34,
0.45,0.97,-0.36,54.39,17.99-9.87,
0.49,0.66,-0.04,18.06,-23.66-0.63,
0.45,0.35,0.27,-15.19,-43.0515.89,
0.43,0.39,0.49,-39.13,-39.1326.32,
0.39,0.55,0.49,-46.69,-9.7331.36,
0.13,0.69,0.33,-24.92,71.7530.17,
-0.03,0.86,-0.04,18.2,132.5822.89,
-0.21,1,-0.32,66.08,145.4621.07,
-0.22,1.04,-0.44,86.1,118.7922.40,
-0.22,1.03,-0.28,87.64,76.5124.92,
-0.25,1.05,-0.1,84.56,45.4323.80,
-0.35,1.07,0.01,84.63,27.7220.37,
-0.34,1.1,0.15,91.35,24.6416.80,
-0.25,1.02,0.25,93.87,33.1813.72,
-0.06,0.98,0.25,89.88,44.1714.77,
0.06,0.77,0.19,92.75,46.9020.02,
0.22,0.63,0.24,93.87,42.4232.20,
0.26,0.55,0.28,88.9,47.4643.61,
0.19,0.65,0.2,89.18,63.5648.23,
0.04,0.7,0,90.37,64.1950.82,
-0.04,0.8,-0.12,96.32,54.6753.13,
-0.06,0.86,-0.09,95.97,48.0951.87,
-0.13,0.89,0.05,89.04,46.6950.26,
-0.17,0.85,0.13,83.3,48.1648.79,
-0.17,0.8,0.15,77.84,48.6546.83,
-0.15,0.75,0.13,76.09,45.8545.08,
-0.15,0.78,0.1,72.87,40.0445.85,
-0.14,0.82,0.08,70.07,38.0145.29,
-0.16,0.87,0.04,67.13,37.9445.92,
-0.14,0.88,0.04,66.92,35.0749.00,
-0.15,0.89,0.08,66.29,30.1754.04,
-0.15,0.9,0.11,66.01,26.7456.70,
-0.12,0.93,0.13,65.87,27.5857.19,
-0.08,0.93,0.14,64.89,30.4556.00,
-0.04,0.98,0.16,66.43,34.1654.46,
0,1.09,0.2,67.55,37.9452.78,
-0.06,1.19,0.19,61.67,42.7047.67,
-0.13,1.27,0.09,48.02,47.7440.32,
-0.22,1.28,0.01,32.55,43.1233.32,
-0.33,1.28,-0.03,22.75,28.9127.79,
-0.48,1.36,-0.04,7.63,17.4319.46,
-0.52,1.38,0.03,-5.11,12.468.96,
-0.43,1.33,0.13,-15.47,7.91-0.14,
-0.31,1.36,0.21,-24.64,8.47-8.61,
-0.35,1.38,0.17,-40.67,2.10-13.72,
-0.44,1.46,0.14,-57.68,-6.86-18.69,
-0.31,1.51,0.02,-84.35,-15.40-31.22,
-0.21,1.55,-0.05,-102.83,-21.56-48.02,
-0.03,1.54,0.12,-119.98,-20.09-66.50,
0.07,1.52,0.2,-147.98,-16.87-83.79,
0.1,1.29,0.18,-176.68,-22.68-83.79,
0.2,1.14,0.17,-178.01,-43.40-78.82,
0.35,1.07,-0.05,-169.61,-47.95-73.99,
0.2,1.02,-0.19,-154.77,-39.83-68.53,
-0.13,1.1,-0.18,-136.15,-31.99-65.94,
-0.27,1.28,0.01,-129.85,-34.79-63.98,
-0.28,1.49,0.32,-133.28,-41.51-66.71,
-0.22,1.52,0.41,-138.81,-46.90-68.46,
0.04,1.32,0.4,-131.81,-43.68-66.57,
0.14,1.23,0.37,-122.29,-37.31-65.87,
0.21,1.12,0.41,-120.61,-23.66-61.74,
0.15,1.07,0.27,-120.47,-17.71-54.81,
0.08,1.02,0.16,-116.34,-21.07-52.78,
0.08,0.84,0.12,-108.78,-30.45-49.91,
0.09,0.77,0.11,-100.52,-35.07-47.32,
0.11,0.7,0.12,-96.39,-38.43-44.38,
0.07,0.64,0.09,-86.17,-39.13-45.01,
0.09,0.59,0.09,-75.11,-38.85-45.57,
0.05,0.56,0.05,-66.08,-43.26-43.89,
0,0.49,-0.01,-48.65,-52.64-42.14,
-0.02,0.54,0.04,-35.84,-61.74-45.15,
-0.09,0.57,0.07,-32.13,-73.92-47.18,
-0.05,0.51,0.14,-29.89,-79.80-47.95,
-0.04,0.47,0.15,-20.79,-82.60-47.18,
-0.03,0.43,0.15,-13.3,-84.49-43.75,
-0.01,0.37,0.12,0.42,-85.75-39.27,
-0.01,0.34,0.1,15.75,-87.99-33.53,
0.1,1.25,0.28,60.62,56.2835.07,
-0.14,1.26,0.18,41.79,46.1333.88,
-0.33,1.19,0.09,26.53,29.1231.50,
-0.54,1.14,0.02,10.43,10.5727.51,
-0.7,1.2,-0.05,-6.37,-3.9212.81,
-0.64,1.22,-0.03,-15.26,-11.13-3.29,
-0.73,1.28,0.14,-14.28,-13.86-13.23,
-0.24,1.25,0.28,-19.32,-23.52-17.43,
-0.18,1.3,0.37,-41.65,-17.85-21.00,
-0.19,1.32,0.17,-69.51,-7.14-23.52,
-0.21,1.34,-0.04,-94.01,-5.74-31.57,
-0.17,1.35,0.07,-114.1,-13.93-43.33,
-0.01,1.32,0.1,-136.08,-25.20-53.62,
0.15,1.26,0.22,-171.99,-28.84-64.19,
0.21,1.05,0.23,-180.32,-33.53-70.14,
0.19,1.1,-0.03,-170.45,-40.04-72.94,
0.11,1.14,-0.28,-162.96,-43.89-73.15,
-0.01,1.23,-0.23,-145.67,-40.32-74.83,
-0.25,1.32,-0.19,-128.24,-39.97-75.67,
-0.41,1.43,0.09,-126.91,-41.51-75.11,
-0.35,1.51,0.19,-134.05,-49.28-71.89,
-0.22,1.44,0.19,-133.91,-61.39-66.99,
-0.1,1.27,0.26,-127.89,-66.57-64.96,
0.06,1.16,0.39,-117.25,-54.18-63.77,
0.23,1.14,0.46,-111.86,-33.39-62.09,
0.31,1.09,0.38,-109.55,-15.33-60.62,
0.26,1,0.28,-100.94,-10.43-60.83,
0.22,0.86,0.18,-90.37,-9.45-60.48,
0.14,0.73,0.09,-84.07,-11.90-58.03,
0.06,0.68,0.07,-80.36,-16.73-54.74,
0.02,0.6,0.04,-74.55,-25.48-50.05,
-0.01,0.61,0.11,-61.32,-34.37-49.35,
-0.01,0.62,0.13,-48.3,-40.88-46.55,
0,0.61,0.14,-33.88,-47.11-40.53,
-0.04,0.61,0.1,-23.24,-56.63-37.10,
-0.03,0.58,0.1,-17.85,-65.45-35.00,
-0.03,0.51,0.11,-11.69,-74.06-31.22,
0.05,0.44,0.12,-8.19,-75.81-29.26,
0.05,0.44,0.1,-3.22,-77.63-27.16,
0.04,0.46,0.1,-0.77,-79.94-27.16,
0.06,0.39,0.12,8.4,-79.17-26.46,
0.07,0.36,0.18,24.71,-77.14-22.68,
0.09,0.36,0.31,38.92,-75.11-16.52,
0.1,0.34,0.44,55.51,-70.00-9.17,
0.09,0.35,0.52,79.38,-58.87-1.89,
0.06,0.46,0.54,103.6,-42.144.27,
-0.03,0.63,0.54,114.31,-33.887.84,
-0.15,0.73,0.56,111.09,-27.239.66,
-0.23,0.77,0.57,104.02,-21.8413.44,
-0.27,0.9,0.59,94.43,-21.3520.58,
-0.28,1.27,0.63,77.28,-29.0520.37,
-0.3,1.54,0.79,48.58,-49.4212.11,
-0.32,1.77,0.97,21.7,-56.49-4.69,
-0.25,1.83,1.07,-14.7,-41.23-23.45,
-0.18,1.59,1.03,-38.08,-20.86-36.33,
-0.31,1.2,0.88,-36.26,-19.25-46.20,
-0.47,0.72,0.71,-21.63,-32.69-45.99,
-0.45,0.58,0.58,-20.58,-69.93-37.38,
-0.18,0.69,0.51,-26.32,-55.23-28.35,
0.01,0.99,0.33,-18.97,-38.99-23.24,
0.19,1.17,0.18,2.8,-25.20-18.34,
0.44,1.3,0.17,37.8,-10.01-8.96,
0.58,1.51,-0.05,80.78,2.735.81,
0.61,1.64,-0.52,111.65,2.594.83,
0.52,1.37,-0.29,96.25,-43.334.62,
0.4,1.16,0.5,12.46,-70.9115.54,
0.12,0.77,0.71,-42.91,-52.3617.92,
0.06,0.77,0.42,-35.14,-0.988.33,
0.22,0.67,0.42,-44.66,46.343.78,
0.24,0.58,0.17,-20.16,97.230.84,
-0.02,0.62,-0.06,18.69,141.263.43,
-0.15,0.77,-0.32,59.15,147.637.77,
-0.19,0.8,-0.61,106.12,114.7313.23,
-0.15,0.93,-0.59,113.54,64.8917.99,
-0.2,1.09,-0.29,114.52,31.0817.15,
-0.28,1.23,0,108.43,17.7110.15,
-0.35,1.08,0.16,111.79,19.537.84,
-0.17,1.11,0.24,94.01,31.788.89,
-0.04,0.78,0.07,99.89,27.7917.78,
0.22,0.77,0.25,84.91,32.4129.82,
0.27,0.72,0.3,77.14,40.3938.64,
0.15,0.66,0.16,75.6,49.4247.18,
0.1,0.7,0.04,76.65,57.8950.61,
0.04,0.81,-0.07,79.73,59.2248.72,
-0.02,0.88,-0.08,80.64,59.2944.10,
-0.05,0.85,-0.02,85.61,60.8341.51,
-0.09,0.82,0.06,87.99,62.5140.18,
-0.14,0.83,0.14,85.68,64.2638.36,
-0.16,0.83,0.13,83.16,64.5435.91,
-0.19,0.8,0.06,77.56,60.4137.31,
-0.18,0.86,0.05,75.53,51.3839.83,
-0.18,0.85,0.05,69.72,43.8244.52,
-0.16,0.89,0.1,66.43,39.3449.07,
-0.16,0.91,0.14,65.38,35.8453.20,
-0.12,0.91,0.16,64.33,34.2355.79,
-0.08,0.92,0.19,64.33,35.0056.70,
-0.05,0.96,0.24,66.29,39.4155.93,
-0.05,1.05,0.27,68.53,47.0453.20,
-0.1,1.13,0.24,61.88,53.9747.39,
-0.17,1.18,0.16,48.09,55.3737.45,
-0.2,1.19,0.08,33.74,51.3128.49,
-0.38,1.29,-0.08,14.63,41.6520.02,
-0.55,1.4,-0.18,-1.96,30.037.98,
-0.56,1.33,-0.15,-8.89,14.70-6.02,
-0.39,1.29,0.1,-10.36,-17.57-11.20,
-0.28,1.28,0.29,-18.69,1.47-15.19,
-0.19,1.32,0.27,-42.35,4.20-15.47,
-0.26,1.36,0.14,-59.01,5.11-17.99,
-0.25,1.43,0.06,-76.93,-4.13-24.78,
-0.22,1.52,0.13,-96.25,-15.68-41.65,
-0.03,1.57,0.37,-129.43,-13.23-57.54,
0.09,1.37,0.34,-171.92,-0.42-69.16,
0.2,1.18,0.16,-185.99,0.49-73.43,
0.36,1.09,0.11,-184.73,-2.31-70.35,
0.32,0.96,-0.17,-174.58,-0.35-62.16,
0.06,1.08,-0.27,-154.7,-0.42-59.36,
-0.15,1.25,-0.21,-138.53,-10.99-56.77,
-0.2,1.45,0.1,-128.03,-15.47-61.53,
-0.09,1.52,0.42,-128.66,-14.07-62.93,
-0.06,1.46,0.46,-129.71,-9.24-61.39,
0.01,1.18,0.36,-124.81,-7.07-57.47,
0.08,1.01,0.35,-115.36,-5.53-51.10,
0.15,0.96,0.34,-111.37,-7.14-45.08,
0.1,0.92,0.29,-107.1,-11.27-40.25,
0.03,0.91,0.24,-99.54,-12.81-40.11,
0,0.85,0.15,-94.43,-18.83-38.57,
0.01,0.79,0.14,-87.15,-22.96-38.50,
0.03,0.69,0.09,-80.64,-27.23-37.80,
0.04,0.69,0.06,-73.29,-35.63-36.61,
0.03,0.62,0.06,-62.65,-40.60-34.58,
0.03,0.6,0.08,-47.32,-42.63-32.13,
0.03,0.58,0.07,-33.88,-46.06-30.38,
0.05,0.55,0.11,-22.26,-49.63-28.56,
0.06,0.51,0.18,-15.68,-50.12-26.60,
0.05,0.51,0.21,-13.79,-48.65-23.94,
0.04,0.47,0.23,-10.15,-48.02-23.24,
0,0.48,0.21,1.47,-51.52-22.26,
-0.02,0.44,0.16,12.04,-56.07-22.12,
0.01,0.38,0.18,21.28,-57.26-19.04,
-0.01,0.35,0.19,34.3,-58.17-14.28,
-0.02,0.35,0.23,45.57,-59.22-9.80,
-0.02,0.34,0.29,58.03,-59.01-4.62,
-0.02,0.34,0.32,73.64,-57.471.19,
-0.03,0.41,0.37,92.12,-56.007.21,
-0.05,0.5,0.39,108.15,-53.7614.28,
-0.14,0.68,0.41,118.02,-51.3817.99,
-0.25,0.81,0.47,115.85,-48.5820.02,
-0.28,0.92,0.59,102.76,-43.7524.78,
-0.26,1.18,0.68,77.07,-35.8427.72,
-0.28,1.5,0.76,27.51,-39.8322.75,
-0.26,1.69,0.95,-4.41,-44.387.77,
-0.14,1.72,1.18,-22.54,-28.07-11.06,
-0.07,1.65,1.1,-40.53,-8.82-26.11,
-0.01,1.36,0.98,-46.9,-9.24-31.29,
-0.18,1.04,0.77,-31.78,-37.24-34.58,
-0.25,0.73,0.65,-22.33,-53.97-31.43,
-0.13,0.71,0.49,-24.01,-54.81-24.15,
0.06,0.88,0.36,-28,-37.38-14.35,
0.15,1.18,0.18,-18.55,-19.53-9.38,
0.31,1.44,0.24,9.24,-6.16-2.94,
0.42,1.58,0.12,48.51,11.624.20,
0.45,1.59,-0.4,89.18,9.456.30,
0.39,1.36,-0.37,64.82,-30.248.54,
0.29,0.98,0.23,-5.67,-59.6422.26,
0.13,0.77,0.48,-38.71,-47.8127.09,
0.11,0.77,0.39,-45.71,-12.1819.04,
0.22,0.75,0.3,-43.61,29.9617.36,
0.1,0.71,0.08,-11.41,93.599.17,
-0.11,0.76,-0.11,36.12,129.994.41,
-0.14,0.87,-0.29,77.56,131.817.35,
-0.15,0.85,-0.49,99.05,94.4314.63,
-0.12,0.92,-0.36,104.44,55.1618.97,
-0.22,1.06,-0.16,103.74,31.8515.12,
-0.29,1.08,0.04,108.43,23.318.89,
-0.23,1.14,0.23,106.61,31.785.81,
-0.1,1,0.24,98.7,43.549.52,
0.09,0.86,0.15,99.75,47.0418.69,
0.25,0.79,0.21,92.12,46.6929.47,
0.25,0.72,0.25,86.1,46.5538.01,
0.14,0.57,0.16,82.67,51.1746.13,
0.03,0.63,0.03,87.43,50.5450.68,
-0.08,0.73,-0.05,80.22,47.4650.47,
-0.1,0.75,-0.08,84.21,43.1949.42,
-0.1,0.8,0.01,85.75,42.4246.97,
-0.12,0.78,0.1,86.52,42.3544.59,
-0.13,0.84,0.16,80.99,44.0341.37,
-0.13,0.87,0.15,76.79,46.4139.55,
-0.15,0.89,0.09,74.69,44.8739.69,
-0.15,0.88,0.06,71.05,38.8541.02,
-0.18,0.85,0.07,68.81,36.1943.26,
-0.19,0.87,0.11,66.64,35.8445.50,
-0.2,0.89,0.12,64.33,35.4946.97,
-0.17,0.9,0.12,63.14,34.9348.51,
-0.12,0.94,0.14,61.95,33.4649.00,
-0.04,1.03,0.19,62.93,36.2647.67,
-0.02,1.09,0.23,56.7,42.6344.10,
-0.07,1.17,0.18,48.16,46.2038.15,
-0.15,1.22,0.03,37.1,43.5429.89,
-0.17,1.21,-0.03,26.67,40.3920.23,
-0.26,1.23,-0.1,20.16,31.9214.00,
-0.33,1.28,-0.1,10.5,19.955.88,
-0.31,1.27,-0.05,1.82,11.27-0.91,
-0.22,1.29,0.07,-3.85,5.53-5.46,
-0.19,1.32,0.22,-11.69,4.55-8.54,
-0.23,1.33,0.27,-26.32,7.91-9.59,
-0.26,1.31,0.21,-48.93,14.28-12.88,
-0.27,1.35,0.1,-64.47,14.14-19.46,
-0.29,1.41,0.02,-77.56,4.27-31.71,
-0.22,1.51,0.08,-101.22,0.07-48.30,
-0.1,1.47,0.18,-126.42,-0.14-64.54,
-0.05,1.36,0.16,-153.51,-7.21-71.54,
-0.01,1.18,0.28,-171.15,-20.72-73.85,
0.16,1.09,0.42,-175.7,-25.48-70.21,
0.22,1.01,-0.11,-175.98,-23.17-63.63,
0.08,1.01,-0.49,-157.36,-37.52-57.68,
-0.13,1.17,-0.41,-137.2,-55.65-52.85,
-0.27,1.3,-0.02,-129.78,-59.57-52.57,
-0.22,1.4,0.33,-131.81,-52.99-56.98,
-0.13,1.43,0.52,-133.28,-41.02-60.41,
0.02,1.38,0.43,-133.98,-32.06-59.50,
0.21,1.18,0.42,-124.95,-24.15-55.16,
0.24,1.11,0.41,-113.61,-15.68-48.86,
0.21,1.05,0.34,-110.81,-10.57-41.37,
0.13,1,0.25,-102.83,-8.26-40.46,
0.08,0.89,0.2,-92.68,-11.76-38.92,
0.05,0.76,0.18,-82.95,-15.26-36.89,
-0.03,0.67,0.09,-73.15,-25.13-36.54,
0,0.64,0.15,-66.57,-26.67-34.30,
-0.06,0.6,0.05,-61.04,-34.02-31.99,
-0.08,0.54,0.01,-52.99,-40.60-31.29,
-0.1,0.47,-0.02,-35.84,-49.00-30.94,
-0.09,0.48,0.01,-21.7,-57.05-31.57,
-0.1,0.46,0.05,-15.05,-67.41-30.80,
-0.02,0.43,0.11,-10.43,-71.40-29.33,
-0.04,0.43,0.15,-3.78,-74.97-28.42,
-0.04,0.48,0.16,-0.07,-77.77-30.03,
0.03,0.43,0.18,7,-75.88-31.29,
0.06,0.39,0.18,17.29,-77.77-26.88,
0.08,0.4,0.22,29.12,-76.93-24.01,
0.11,0.41,0.26,42.35,-73.01-18.69,
0.12,0.39,0.33,56.28,-67.48-13.02,
0.11,0.37,0.37,79.38,-57.82-5.39,
0.06,0.43,0.41,97.79,-46.693.29,
-0.04,0.56,0.44,108.99,-40.119.94,
-0.15,0.7,0.5,112.28,-34.8610.43,
-0.25,0.76,0.56,109.9,-27.7913.23,
-0.22,0.93,0.66,101.15,-18.4817.57,
-0.24,1.22,0.67,71.47,-13.1617.15,
-0.27,1.48,0.74,36.4,-19.1110.08,
-0.27,1.59,0.95,5.81,-22.96-2.59,
-0.26,1.6,1.04,-17.78,-11.83-17.85,
-0.26,1.54,1.02,-46.55,-9.31-24.15,
-0.2,1.28,0.89,-49.07,-26.39-30.59,
-0.3,0.98,0.64,-26.11,-44.45-34.65,
-0.32,0.83,0.48,-11.27,-57.68-31.29,
-0.11,0.87,0.48,-11.62,-55.86-20.72,
0.04,1.14,0.42,-10.92,-44.03-10.92,
0.24,1.4,0.37,-3.57,-28.49-3.08,
0.46,1.62,0.31,26.74,-9.173.15,
0.54,1.84,0.09,50.4,14.6310.99,
0.52,1.66,-0.38,74.06,19.465.18,
0.42,1.29,-0.16,52.99,-10.99-3.57,
0.35,0.88,0.42,-6.09,-31.221.26,
0.2,0.49,0.32,-16.45,-12.605.11,
0.13,0.47,0.2,-17.36,9.872.94,
0.26,0.41,0.27,-28.42,44.3811.13,
0.12,0.5,0.11,-14,88.9715.19,
-0.15,0.66,-0.21,37.59,120.6821.63,
-0.19,0.98,-0.42,69.02,113.8227.37,
-0.14,1.08,-0.52,88.83,79.1729.47,
-0.11,1.1,-0.32,94.15,39.3426.88,
-0.2,1.1,-0.1,106.4,20.4418.34,
-0.26,1.07,0.06,118.79,17.2211.83,
-0.24,1.02,0.18,111.16,22.4011.69,
-0.08,1.05,0.27,93.73,33.6011.76,
0.03,0.84,0.18,90.23,38.5715.61,
0.13,0.75,0.24,87.22,37.1027.51,
0.23,0.64,0.31,88.55,49.5631.71,
0.15,0.7,0.18,84.28,62.7936.47,
0.02,0.73,0,83.79,65.3139.90,
-0.05,0.76,-0.15,91.14,59.3641.65,
-0.09,0.83,-0.14,93.24,55.3740.46,
-0.11,0.89,-0.05,89.25,52.4338.15,
-0.15,0.87,0.05,84.21,50.6136.61,
-0.16,0.87,0.13,80.43,50.9636.19,
-0.14,0.86,0.14,76.93,50.8935.70,
-0.11,0.87,0.13,69.65,48.1635.70,
-0.13,0.85,0.1,62.58,45.4337.31,
-0.14,0.86,0.1,57.68,45.0838.99,
-0.14,0.87,0.08,55.65,42.1442.07,
-0.15,0.87,0.08,55.3,38.2946.06,
-0.13,0.89,0.09,57.19,34.5849.49,
-0.12,0.9,0.09,59.71,32.1352.01,
-0.11,0.93,0.1,60.97,33.2552.29,
-0.11,0.96,0.11,62.3,36.7551.59,
-0.09,1.03,0.13,63.42,40.3948.44,
-0.1,1.13,0.14,60.2,43.4742.77,
-0.16,1.24,0.09,48.51,43.0535.28,
-0.18,1.22,0.01,35.56,38.8527.79,
-0.27,1.21,-0.03,27.58,27.4421.84,
-0.36,1.24,-0.05,13.58,17.1514.28,
-0.36,1.25,-0.01,4.55,11.694.83,
-0.25,1.27,0.15,-0.7,9.10-3.50,
-0.16,1.29,0.18,-7.14,10.15-10.57,
-0.12,1.37,0.17,-20.3,16.73-16.03,
-0.16,1.42,0.11,-37.94,17.92-20.16,
-0.24,1.48,0.04,-57.19,10.78-29.05,
-0.23,1.56,0.02,-76.58,1.96-42.56,
-0.12,1.62,0.13,-101.99,1.96-59.01,
-0.07,1.56,0.18,-125.51,8.40-74.06,
-0.05,1.32,0.08,-153.37,9.59-76.44,
0.07,1.09,0.12,-167.44,-10.15-73.22,
0.25,0.99,0.16,-161.7,-22.19-65.52,
0.3,0.96,-0.1,-154,-23.66-57.68,
0.17,0.91,-0.39,-149.38,-31.92-48.09,
-0.02,1.08,-0.26,-140.28,-40.46-38.71,
-0.07,1.29,0.16,-137.55,-42.28-38.85,
-0.1,1.43,0.44,-145.88,-31.43-48.86,
-0.06,1.32,0.51,-148.19,-17.71-53.20,
0.03,1.25,0.36,-137.41,-8.89-52.22,
0.13,1.12,0.35,-125.58,-2.94-47.11,
0.11,1.12,0.32,-123.13,-2.59-38.92,
0.03,1.08,0.24,-122.85,-10.57-30.03,
-0.03,0.96,0.17,-115.5,-20.44-26.18,
-0.02,0.88,0.15,-102.55,-23.59-27.30,
0.05,0.82,0.13,-98.77,-25.41-25.97,
0.08,0.69,0.1,-87.01,-26.53-23.80,
0.12,0.66,0.13,-81.06,-26.46-20.51,
0.07,0.59,0.09,-73.08,-26.46-18.06,
0.05,0.53,0.03,-62.16,-27.23-18.27,
0.01,0.5,0.02,-42.35,-29.75-18.76,
0.04,0.52,0.08,-29.75,-31.15-20.51,
0.03,0.48,0.1,-21,-35.63-20.65,
0.01,0.46,0.13,-15.26,-39.76-18.83,
0.04,0.43,0.17,-9.38,-42.00-16.52,
0.03,0.43,0.18,-1.19,-45.99-11.48,
0.02,0.45,0.19,4.9,-48.30-10.08,
-0.01,0.41,0.23,13.37,-49.00-8.54,
-0.03,0.38,0.22,27.44,-49.28-4.97,
-0.05,0.36,0.27,44.38,-49.63-1.33,
-0.05,0.33,0.33,62.02,-47.391.61,
-0.06,0.3,0.39,82.67,-44.107.28,
-0.1,0.44,0.4,96.6,-43.8913.16,
-0.15,0.59,0.44,102.48,-45.2218.06,
-0.23,0.72,0.47,104.3,-44.5220.16,
-0.27,0.85,0.54,90.58,-41.8619.39,
-0.23,0.95,0.69,76.86,-32.5517.43,
-0.17,1.21,0.81,57.68,-20.3016.52,
-0.19,1.8,0.9,26.18,-21.145.67,
-0.14,2.05,1.03,-9.17,-24.85-16.52,
-0.06,1.92,1.09,-32.13,-16.59-32.20,
-0.14,1.59,1.11,-44.45,-24.85-44.17,
-0.37,1.04,0.98,-43.82,-49.00-51.52,
-0.44,0.57,0.81,-37.8,-67.34-46.83,
-0.32,0.43,0.62,-41.86,-66.71-36.82,
-0.13,0.75,0.42,-41.72,-44.03-25.76,
0.09,1.05,0.12,-20.51,-22.54-19.95,
0.35,1.3,0.02,22.68,-12.25-10.85,
0.54,1.6,0.04,55.58,-4.412.38,
0.57,1.69,-0.31,96.95,-6.309.10,
0.49,1.57,-0.26,88.2,-42.0710.43,
0.37,1.24,0.36,7.56,-66.1518.48,
0.15,0.8,0.53,-39.62,-55.9323.94,
0.24,0.86,0.38,-46.76,-16.2416.45,
0.29,0.73,0.42,-61.18,22.9611.62,
0.25,0.52,0.26,-24.71,81.060.28,
0.07,0.53,-0.01,17.99,139.30-4.27,
-0.06,0.67,-0.41,60.2,157.011.75,
-0.14,0.82,-0.69,90.3,120.2617.50,
-0.15,1,-0.57,100.24,66.5723.45,
-0.16,1.19,-0.34,108.99,30.2418.20,
-0.26,1.2,-0.11,109.13,14.1412.67,
-0.28,1.19,0.14,115.29,11.979.03,
-0.2,1.09,0.23,112.35,21.499.59,
0,1.02,0.2,95.48,30.7315.05,
0.11,0.74,0.19,90.79,31.4328.28,
0.36,0.73,0.3,89.39,41.6535.77,
0.2,0.73,0.25,81.97,55.3040.60,
0.1,0.71,0.09,80.64,64.8243.19,
0.01,0.69,-0.17,83.58,55.0946.76,
0.01,0.78,-0.15,86.8,42.1446.97,
-0.03,0.82,-0.08,85.47,39.3443.33,
-0.04,0.83,0.04,85.54,42.5640.11,
-0.09,0.81,0.12,84.98,47.4638.92,
-0.11,0.84,0.15,80.78,51.0337.10,
-0.1,0.9,0.13,75.74,53.6935.56,
-0.11,0.88,0.06,71.19,53.4135.28,
-0.11,0.89,0.06,66.01,51.5253.55,
-0.14,0.85,0.05,65.1,47.0438.50,
-0.16,0.85,0.07,64.4,43.3341.79,
-0.16,0.87,0.1,61.95,40.9544.73,
-0.14,0.87,0.11,60.2,38.0147.88,
-0.11,0.9,0.09,59.57,35.7050.05,
-0.06,0.94,0.1,62.3,35.7751.45,
-0.03,1.03,0.17,67.48,37.8050.75,
-0.04,1.14,0.23,70.07,42.7047.88,
-0.14,1.22,0.18,60.76,47.8141.58,
-0.21,1.26,0.08,43.19,44.8733.95,
-0.27,1.23,0.04,26.18,32.2026.32,
-0.39,1.28,-0.07,11.83,19.3919.18,
